File: 01_Data/Masonite_Board/Cone/Masonite_Cone_HF25Scan_230106_R2.csv
Names,Time,Stack TC,Smoke TC,Exh Press,Smoke Comp,Smoke Meas,CO Meter,CO2 Meter,O2 Meter,Sample Mass,Ext Coeff,Start Test,Flame Verif
Chan Gain,,500,500,1,1,1,1,1,1,1,1,1.0,1.0
Offset,,0,0,0.303564,0,0,0,0,0,0,0,0.0,0.0
Gain,,1,1,25.011,13.3149,15.9198,1,1,1,1.00088,1.03447,1.0,1.0
Units,sec,C,C,Pa,%,%,%,%,%,g,/m,,
Baseline,,26.7355,27.8287,153.932,98.9512,98.5187,0.000788324,0.0475668,20.9602,-444.426,0.0397497,,
4,0.75,24.3324,25.0729,156.699,98.982,98.5004,0.000645675,0.0505426,20.9553,181.379,0.044265,0.0,0.0
8,1.75,23.823,25.2234,152.641,98.9711,98.446,0.000744824,0.0505562,20.955,181.369,0.0482729,0.0,0.0
12,2.75,23.6435,24.6352,154.723,98.978,98.6243,0.000789565,0.0504336,20.9549,181.389,0.0324871,0.0,0.0
16,3.75,23.7836,24.7098,156.164,98.9804,98.6544,0.00077606,0.0502961,20.9549,181.409,0.0299386,0.0,0.0
20,4.75,23.7074,25.0548,151.991,98.9894,98.5213,0.000724368,0.0501976,20.9549,181.379,0.0430108,0.0,0.0
24,5.75,24.5152,25.0898,153.286,98.9894,98.6243,0.0006839,0.0501703,20.9557,181.359,0.0335294,0.0,0.0
28,6.75,23.689,24.9618,153.17,99.0064,98.4858,0.000640059,0.0504421,20.9562,181.349,0.0478425,0.0,0.0
32,7.75,24.1131,25.6606,154.605,98.9934,98.6374,0.000606135,0.0509734,20.9565,181.359,0.0326951,0.0,0.0
36,8.75,24.1569,25.1983,153.066,98.9902,98.7195,0.000577774,0.0517595,20.9561,181.319,0.0248471,0.0,0.0
40,9.75,24.5072,25.3569,152.938,98.993,98.6418,0.000557937,0.0526443,20.9557,181.309,0.0322554,0.0,0.0
44,10.75,24.5519,25.2375,155.524,99.0064,98.5771,0.000549714,0.0534567,20.9549,181.299,0.0394314,0.0,0.0
48,11.75,24.5387,25.4658,154.752,98.9999,98.5956,0.000537469,0.0542619,20.9541,181.279,0.0371359,0.0,0.0
52,12.75,24.3337,25.5998,155.049,99.0032,98.4829,0.000523214,0.054996,20.9524,181.269,0.0478123,0.0,0.0
56,13.75,23.9707,25.3269,152.899,99.017,98.5495,0.000513799,0.0555568,20.9513,181.259,0.0429483,0.0,0.0
60,14.75,24.8125,24.8033,153.011,99.0133,98.6335,0.000519514,0.0558624,20.9502,181.269,0.0348775,0.0,0.0
64,15.75,24.4266,25.4404,154.298,99.0121,98.5179,0.000542434,0.055859,20.9486,181.239,0.0454103,0.0,0.0
68,16.75,23.8406,25.5373,156.438,99.0284,98.6413,0.000591277,0.0556461,20.9472,181.229,0.0355402,0.0,0.0
72,17.75,24.5996,25.232,154.845,99.0227,98.6466,0.000652633,0.0552103,20.9463,181.219,0.0345262,0.0,0.0
76,18.75,24.1505,25.2481,153.878,99.0369,98.582,0.000695382,0.0548797,20.9457,181.189,0.0417758,0.0,0.0
80,19.75,23.9481,25.5686,152.811,99.0353,98.5567,0.000725448,0.0541619,20.9455,181.179,0.0439528,0.0,0.0
84,20.75,24.0812,25.4646,155.609,99.0332,98.5174,0.000695575,0.0535453,20.9454,181.169,0.0473905,0.0,0.0
88,21.75,24.2531,25.3628,156.27,99.0381,98.5971,0.000660201,0.0529501,20.9456,181.159,0.0405019,0.0,0.0
92,22.75,24.117,25.318,152.837,99.0389,98.5704,0.000651199,0.0523842,20.9463,181.139,0.0430355,0.0,0.0
96,23.75,24.0636,25.2768,154.994,99.0422,98.6986,0.000685184,0.0517877,20.947,181.079,0.0315342,0.0,0.0
100,24.75,23.9777,25.6697,153.558,99.0564,98.5728,0.000725254,0.051229,20.948,181.049,0.0444135,0.0,0.0
104,25.75,23.9787,25.6098,152.688,99.0589,98.6461,0.000760475,0.0505457,20.9497,181.039,0.0378857,0.0,0.0
108,26.75,24.5422,25.0849,154.165,99.0666,98.7078,0.000773637,0.0501376,20.9504,181.019,0.0329182,0.0,0.0
112,27.75,24.477,26.0391,154.906,99.0755,98.5431,0.000767771,0.0497165,20.9511,180.998,0.0488905,0.0,0.0
116,28.75,24.832,25.6525,150.574,99.0662,98.65,0.000770687,0.0493612,20.9515,180.988,0.0381981,0.0,0.0
120,29.75,24.4624,25.5492,151.558,99.0723,98.5451,0.000792901,0.0491343,20.9522,180.998,0.0484139,0.0,0.0
124,30.75,25.1227,25.6545,156.786,99.08,98.5271,0.000818756,0.0490401,20.953,180.968,0.0507775,0.0,0.0
128,31.75,24.7911,25.083,152.414,99.082,98.6005,0.000842489,0.0489992,20.9536,180.958,0.044209,0.0,0.0
132,32.75,24.4068,25.5179,151.995,99.0934,98.3328,0.000851291,0.0489605,20.954,180.958,0.069921,0.0,0.0
136,33.75,24.5776,25.6627,156.813,99.0966,98.4027,0.000838371,0.0489352,20.955,180.938,0.0637638,0.0,0.0
140,34.75,24.3494,25.652,151.65,99.0975,98.532,0.000805573,0.0490765,20.9557,180.928,0.0519295,0.0,0.0
144,35.75,24.6152,25.5484,154.091,99.1141,98.532,0.000761668,0.0491692,20.9561,180.918,0.0534545,0.0,0.0
148,36.75,24.5144,25.9034,155.819,99.1174,98.4766,0.000705818,0.0491864,20.9564,180.898,0.0588546,0.0,0.0
152,37.75,24.697,25.4266,150.971,99.1251,98.3099,0.000644394,0.0491041,20.9566,180.878,0.0749294,0.0,0.0
156,38.75,24.7034,25.0804,153.873,99.1308,98.4562,0.000577071,0.048974,20.9567,180.868,0.0619622,0.0,0.0
160,39.75,24.6071,25.5221,154.795,99.1357,98.3585,0.000512639,0.0488497,20.9566,180.858,0.071414,0.0,0.0
164,40.75,24.4162,25.7111,156.225,99.1291,98.5504,0.000465392,0.0487309,20.9559,180.848,0.0531308,0.0,0.0
168,41.75,24.1356,25.8561,152.85,99.1361,98.4066,0.000430364,0.0486529,20.9555,180.828,0.0670147,0.0,0.0
172,42.75,24.9882,25.5611,149.632,99.1438,98.3119,0.000418636,0.0484564,20.9557,180.818,0.0764612,0.0,0.0
176,43.75,24.5815,25.7609,154.71,99.1462,98.3838,0.000423432,0.0481798,20.9569,180.808,0.0700498,0.0,0.0
180,44.75,24.7816,25.0354,155.286,99.1608,98.3527,0.000445908,0.047933,20.958,180.798,0.0742567,0.0,0.0
184,45.75,24.3824,25.5847,150.785,99.1775,98.4246,0.000484476,0.0477897,20.9588,180.768,0.0691502,0.0,0.0
188,46.75,24.6916,25.7341,152.837,99.1763,98.4644,0.000534954,0.0476957,20.9599,180.758,0.0653663,0.0,0.0
192,47.75,24.6039,25.6632,154.815,99.1787,98.2711,0.000584208,0.0475926,20.9608,180.748,0.0834266,0.0,0.0
196,48.75,24.7284,26.0579,155.901,99.1812,98.2876,0.000652601,0.0474847,20.961,180.718,0.0821242,0.0,0.0
200,49.75,25.1135,25.9779,157.164,99.2023,98.3206,0.000696849,0.0474685,20.961,180.708,0.0810082,0.0,0.0
204,50.75,24.6313,25.5675,153.08,99.2039,98.3376,0.000728896,0.047485,20.9615,180.678,0.0795875,0.0,0.0
208,51.75,24.5853,25.7403,152.805,99.2072,98.2273,0.000735091,0.0474812,20.9619,180.668,0.0900675,0.0,0.0
212,52.75,25.3207,25.6762,154.655,99.2189,98.3182,0.000718043,0.047467,20.9621,180.638,0.0827567,0.0,0.0
216,53.75,24.6503,26.1074,154.698,99.2263,98.2638,0.000666492,0.0474577,20.9623,180.638,0.0884479,0.0,0.0
220,54.75,24.7168,26.1419,151.066,99.2336,98.2774,0.000606728,0.047344,20.9624,180.588,0.0878608,0.0,0.0
224,55.75,24.7073,26.0748,152.046,99.2352,98.2434,0.00052367,0.0473316,20.9621,180.548,0.0911503,0.0,0.0
228,56.75,24.7485,25.9262,156.153,99.2437,98.4057,0.0004596,0.0473326,20.962,180.538,0.0769547,0.0,0.0
232,57.75,24.6988,26.3306,152.559,99.2543,98.2473,0.000444571,0.0473436,20.9619,180.508,0.0925381,0.0,0.0
236,58.75,24.8222,26.1029,154.158,99.2474,98.3653,0.000477494,0.0474325,20.9612,180.498,0.0810093,0.0,0.0
240,59.75,25.0152,26.2138,154.478,99.2494,98.3065,0.000541907,0.047567,20.9605,180.448,0.0866191,0.0,0.0
244,60.75,24.9567,25.9853,155.175,99.251,98.2633,0.000620242,0.0476865,20.9601,180.438,0.0907594,0.0,0.0
248,61.75,23.9574,25.719,153.294,99.2531,98.3954,0.000701858,0.0477835,20.9599,180.378,0.0787511,0.0,0.0
252,62.75,24.7973,26.3755,151.915,99.2575,98.4066,0.000781321,0.0478735,20.9597,180.368,0.078128,0.0,0.0
256,63.75,24.2664,26.0913,153.57,99.2551,98.3736,0.000844477,0.0480114,20.9596,180.358,0.0809525,0.0,0.0
260,64.75,24.7798,26.0559,156.117,99.2588,98.4659,0.000890964,0.0481555,20.9595,180.298,0.0727759,0.0,0.0
264,65.75,24.5604,25.6302,154.605,99.258,98.1501,0.000905456,0.0483807,20.9597,180.278,0.101851,0.0,0.0
268,66.75,24.3664,25.9148,154.219,99.2641,98.2385,0.000885763,0.0485284,20.96,180.258,0.0942372,0.0,0.0
272,67.75,24.5806,26.065,154.264,99.2706,98.1783,0.000828775,0.0487833,20.9602,180.208,0.100397,0.0,0.0
276,68.75,24.5231,25.8617,154.147,99.2701,98.3542,0.000761115,0.0493447,20.9604,180.188,0.0841201,0.0,0.0
280,69.75,24.8237,25.6214,149.264,99.2726,98.4557,0.000667161,0.0503577,20.9597,180.148,0.0749787,0.0,0.0
284,70.75,24.4869,25.941,150.316,99.262,98.24,0.000605518,0.0518082,20.9592,180.128,0.0939161,0.0,0.0
288,71.75,25.1659,25.8268,150.486,99.2868,98.1044,0.000587596,0.0532618,20.9583,180.098,0.10871,0.0,0.0
292,72.75,24.7033,26.2802,157.876,99.2921,98.2482,0.000618653,0.0544947,20.9568,180.068,0.0959018,0.0,0.0
296,73.75,24.5407,26.2499,155.164,99.273,98.2793,0.000681873,0.0554155,20.9545,180.038,0.0912852,0.0,0.0
300,74.75,24.4314,26.2363,152.546,99.2791,98.3138,0.000734016,0.0560432,20.9525,180.008,0.0886579,0.0,0.0
304,75.75,24.486,26.3622,152.066,99.288,98.0559,0.000754897,0.0562703,20.9513,179.978,0.113317,0.0,0.0
308,76.75,24.7231,25.691,154.9,99.2941,98.0505,0.000752197,0.056253,20.9505,179.948,0.114369,0.0,0.0
312,77.75,24.7297,25.8905,152.983,99.3071,98.5344,0.000741774,0.0559782,20.9499,179.928,0.0708849,0.0,0.0
316,78.75,24.9515,25.86,155.267,99.2925,98.326,0.000733336,0.0554023,20.9496,179.878,0.0887628,0.0,0.0
320,79.75,24.7764,26.0252,158.312,99.2941,98.2949,0.000736819,0.0546436,20.9494,179.857,0.091781,0.0,0.0
324,80.75,24.6921,26.2325,154.212,99.2929,98.1564,0.000743615,0.0538787,20.9492,179.827,0.104462,0.0,0.0
328,81.75,24.9944,26.0851,152.613,99.286,98.1195,0.000748073,0.05321,20.9491,179.797,0.107244,0.0,0.0
332,82.75,25.0712,26.0677,157.796,99.2982,98.1768,0.000720798,0.0525658,20.9495,179.777,0.103058,0.0,0.0
336,83.75,24.7514,26.1611,150.025,99.2872,98.3459,0.000685354,0.0520667,20.9502,179.757,0.0864412,0.0,0.0
340,84.75,24.7445,26.1877,153.511,99.2941,98.1997,0.000636623,0.0515427,20.9514,179.737,0.100576,0.0,0.0
344,85.75,24.8141,26.0917,153.849,99.2892,98.3921,0.000580899,0.05112,20.9521,179.717,0.0823697,0.0,0.0
348,86.75,25.0483,26.1951,154.574,99.2876,98.1725,0.000529233,0.0507636,20.9535,179.677,0.102496,0.0,0.0
352,87.75,25.1462,25.8237,152.896,99.2848,98.1895,0.000485755,0.050513,20.9543,179.647,0.100665,0.0,0.0
356,88.75,24.8663,26.5614,155.696,99.2957,98.2414,0.000469667,0.0503749,20.9549,179.637,0.0968651,0.0,0.0
360,89.75,24.6747,26.2439,155.771,99.2779,98.1418,0.000479665,0.0504503,20.9553,179.627,0.104434,0.0,0.0
364,90.75,25.1308,26.2107,152.348,99.2657,98.2108,0.000519646,0.0505445,20.9555,179.597,0.0969443,0.0,0.0
368,91.75,24.8849,26.3628,158.227,99.26,98.2662,0.000565056,0.0505481,20.9557,179.557,0.0913077,0.0,0.0
372,92.75,24.961,25.9606,153.424,99.2673,98.1302,0.000610628,0.050416,20.9566,179.517,0.104547,0.0,0.0
376,93.75,24.8824,26.0384,153.276,99.2844,98.3945,0.000647659,0.0501568,20.9572,179.477,0.0817008,0.0,0.0
380,94.75,24.9795,26.1217,156.188,99.2685,97.9393,0.000678352,0.0498316,20.9576,179.447,0.122331,0.0,0.0
384,95.75,24.8897,26.7971,156.109,99.273,98.2793,0.000698489,0.0495593,20.9578,179.417,0.0912852,0.0,0.0
388,96.75,24.4791,26.1821,153.917,99.2661,98.1457,0.000708423,0.049328,20.958,179.387,0.102999,0.0,0.0
392,97.75,24.9444,25.6084,150.763,99.2726,98.2026,0.000700391,0.0491348,20.9581,179.377,0.0983387,0.0,0.0
396,98.75,25.0616,26.1172,155.12,99.2762,98.0223,0.000672583,0.0489554,20.9582,179.337,0.115342,0.0,0.0
400,99.75,24.7622,26.4709,149.603,99.2624,98.2444,0.000645612,0.0488615,20.9588,179.307,0.0935499,0.0,0.0
404,100.75,24.9873,26.8733,153.582,99.2673,98.0845,0.000618408,0.0488295,20.9588,179.277,0.108771,0.0,0.0
408,101.75,24.611,26.3002,156.667,99.2641,98.2652,0.000609572,0.0489455,20.9593,179.267,0.0917692,0.0,0.0
412,102.75,25.4135,26.2609,153.487,99.2624,97.932,0.000612788,0.0490339,20.9598,179.247,0.122451,0.0,0.0
416,103.75,25.2998,26.9274,153.963,99.2657,98.1399,0.000636211,0.049036,20.9596,179.227,0.1035,0.0,0.0
420,104.75,25.1544,26.4787,158.36,99.2697,98.1117,0.000666032,0.0489846,20.9592,179.217,0.106477,0.0,0.0
424,105.75,25.1613,26.4324,155.013,99.2547,97.9626,0.000702681,0.0489773,20.9589,179.197,0.118909,0.0,0.0
428,106.75,25.155,26.5642,155.319,99.2555,98.1452,0.000739828,0.0489536,20.9587,179.187,0.102077,0.0,0.0
432,107.75,25.5678,26.2071,152.65,99.2482,97.8528,0.00076299,0.0489537,20.9589,179.177,0.12849,0.0,0.0
436,108.75,25.2743,26.1187,154.146,99.249,97.8105,0.000759488,0.0490008,20.959,179.157,0.132485,0.0,0.0
440,109.75,25.2219,26.2911,151.341,99.2417,97.8513,0.000742799,0.0490199,20.959,179.157,0.128031,0.0,0.0
444,110.75,25.0091,26.707,151.373,99.2376,98.0102,0.000712309,0.0489765,20.9591,179.127,0.112939,0.0,0.0
448,111.75,25.4562,26.381,152.729,99.2397,97.7906,0.000687048,0.0489771,20.9591,179.097,0.133478,0.0,0.0
452,112.75,24.9893,25.9645,150.269,99.2397,97.9791,0.000693016,0.0490155,20.9585,179.097,0.116004,0.0,0.0
456,113.75,24.6511,26.2645,151.346,99.2364,97.8251,0.000737524,0.0490526,20.958,179.077,0.129982,0.0,0.0
460,114.75,25.0902,26.0487,152.498,99.2303,97.8003,0.000793802,0.0490615,20.9577,179.057,0.131723,0.0,0.0
464,115.75,25.1927,26.2331,153.94,99.2267,97.6001,0.000837496,0.0490148,20.9574,179.067,0.149979,0.0,0.0
468,116.75,24.558,26.557,148.874,99.2352,97.8479,0.000843048,0.0489468,20.9573,179.057,0.127751,0.0,0.0
472,117.75,25.1551,26.1743,157.953,99.2356,98.0423,0.000840472,0.0489626,20.957,179.037,0.109785,0.0,0.0
476,118.75,25.3251,26.4718,151.753,99.236,97.6006,0.000784565,0.0490037,20.9567,179.057,0.150789,0.0,0.0
480,119.75,25.0403,26.7475,151.507,99.2372,97.6648,0.00073887,0.0490348,20.9565,179.047,0.14494,0.0,0.0
484,120.75,25.2139,26.5094,156.463,99.2389,97.9349,0.000710664,0.0490656,20.9564,179.037,0.120025,0.0,0.0
488,121.75,25.4258,26.6923,156.783,99.2299,97.4354,0.000696188,0.049153,20.9563,179.017,0.165603,0.0,0.0
492,122.75,24.8409,26.5301,153.345,99.2372,97.7138,0.000680542,0.0492603,20.9562,179.017,0.140382,0.0,0.0
496,123.75,25.5421,26.5853,152.867,99.2527,97.5273,0.000657711,0.0493501,20.9562,178.997,0.159135,0.0,0.0
500,124.75,25.0495,26.2222,150.489,99.2242,97.6332,0.0006436,0.0494276,20.9562,178.957,0.146684,0.0,0.0
504,125.75,25.17,26.3516,152.394,99.2181,97.6113,0.000651133,0.0494163,20.9561,178.957,0.14816,0.0,0.0
508,126.75,25.3564,26.3725,154.903,99.2206,97.6983,0.000704738,0.0493507,20.9561,178.967,0.140302,0.0,0.0
512,127.75,25.0012,26.142,151.001,99.2303,97.4184,0.00077671,0.0492964,20.9561,178.947,0.167223,0.0,0.0
516,128.75,24.7046,26.8568,155.46,99.221,97.4563,0.000828444,0.0492463,20.9561,178.937,0.162839,0.0,0.0
520,129.75,25.2406,26.9003,151.457,99.2137,97.3883,0.000851102,0.0492161,20.9561,178.917,0.168506,0.0,0.0
524,130.75,25.5574,26.4928,153.043,99.2214,97.2168,0.000869525,0.0492082,20.9561,178.897,0.185205,0.0,0.0
528,131.75,25.0332,26.4777,152.673,99.221,97.261,0.000896287,0.0492292,20.9561,178.887,0.181043,0.0,0.0
532,132.75,25.4047,26.5193,152.615,99.2141,97.1172,0.000921215,0.0492016,20.9561,178.857,0.193838,0.0,0.0
536,133.75,25.4024,26.2317,153.781,99.2222,96.9355,0.000934541,0.0491953,20.9561,178.847,0.211575,0.0,0.0
540,134.75,25.1643,26.5144,151.064,99.212,96.9924,0.000907717,0.0492471,20.9563,178.827,0.205326,0.0,0.0
544,135.75,25.283,26.797,153.293,99.2169,96.9365,0.000872603,0.0492739,20.9565,178.807,0.211,0.0,0.0
548,136.75,25.5576,26.5477,152.7,99.2137,97.177,0.000818487,0.049404,20.9567,178.807,0.188219,0.0,0.0
552,137.75,25.3076,26.3025,151.195,99.2173,97.0915,0.000772983,0.0495947,20.9568,178.797,0.196542,0.0,0.0
556,138.75,25.391,26.2613,153.482,99.2181,96.7975,0.000738125,0.0497356,20.9568,178.777,0.224129,0.0,0.0
560,139.75,25.7281,26.4949,152.559,99.2177,96.7587,0.000728782,0.04987,20.9571,178.757,0.227736,0.0,0.0
564,140.75,25.4808,26.5195,152.487,99.208,97.2134,0.000724905,0.049997,20.9574,178.757,0.184297,0.0,0.0
568,141.75,25.0998,26.4971,156.936,99.2149,96.9754,0.00074902,0.0501178,20.9575,178.737,0.207176,0.0,0.0
572,142.75,25.6061,26.3866,152.401,99.2291,96.406,0.000796947,0.050197,20.9576,178.747,0.261915,0.0,0.0
576,143.75,25.3125,26.8659,155.387,99.2397,97.1843,0.000884177,0.0503279,20.9577,178.676,0.189916,0.0,0.0
580,144.75,25.3412,26.5348,152.358,99.2039,96.5964,0.00097947,0.0504665,20.9578,178.666,0.241703,0.0,0.0
584,145.75,25.401,26.5536,150.674,99.2064,96.3603,0.00105163,0.0506197,20.9578,178.626,0.264134,0.0,0.0
588,146.75,25.5132,26.2832,148.423,99.2051,95.8745,0.00110181,0.0507577,20.9578,178.616,0.309889,0.0,0.0
592,147.75,25.1128,26.8182,151.648,99.2096,95.6335,0.00112992,0.0509411,20.957,178.606,0.333135,0.0,0.0
596,148.75,25.5569,27.0554,152.345,99.2068,97.0521,0.00115967,0.0511905,20.9565,178.546,0.199254,0.0,1.0
600,149.75,25.696,26.5099,149.274,99.2108,98.4829,0.00120712,0.0513719,20.9562,178.406,0.0668247,0.0,1.0
604,150.75,25.6688,26.9487,148.977,99.2051,98.6136,0.0012956,0.0516802,20.956,178.436,0.0542707,0.0,1.0
608,151.75,25.5816,27.2103,147.284,99.2137,98.6374,0.00139817,0.0521441,20.9558,178.416,0.0528598,0.0,1.0
612,152.75,25.9646,27.8355,147.812,99.2234,98.3469,0.00150368,0.0526147,20.9557,178.386,0.0805204,0.0,1.0
616,153.75,25.809,28.6717,141.318,99.225,98.1686,0.00160514,0.0527396,20.9556,178.216,0.0971348,0.0,1.0
620,154.75,25.8646,27.1184,143.198,99.2238,97.6419,0.00168568,0.0527019,20.9556,178.206,0.145835,0.0,1.0
624,155.75,25.7426,28.0265,144.849,99.2246,97.2285,0.00176355,0.053169,20.9556,178.156,0.184414,0.0,1.0
628,156.75,26.9331,29.2178,139.327,99.2315,96.6576,0.0018241,0.0537545,20.9553,177.996,0.238481,0.0,0.0
632,157.75,27.4269,30.0688,139.97,99.223,95.8919,0.00191775,0.0598889,20.9545,177.876,0.30987,0.0,0.0
636,158.75,27.8987,31.3866,139.609,99.2376,96.7086,0.00202025,0.0718835,20.9538,177.676,0.234251,0.0,0.0
640,159.75,28.4239,32.0985,135.08,99.2515,95.6403,0.00211328,0.090848,20.9534,177.576,0.336316,0.0,0.0
644,160.75,29.5944,32.7063,140.062,99.2571,96.5731,0.00219044,0.115792,20.9499,177.255,0.248761,0.0,0.0
648,161.75,30.1296,34.4341,134.597,99.2575,97.1619,0.00225974,0.144165,20.9442,177.185,0.193638,0.0,0.0
652,162.75,30.3121,34.9507,136.664,99.2677,97.0176,0.00232288,0.177679,20.9306,177.105,0.208053,0.0,0.0
656,163.75,31.5901,35.66,137.715,99.2771,96.661,0.0023906,0.210514,20.9075,176.925,0.242323,0.0,0.0
660,164.75,32.6201,36.9171,139.947,99.2888,97.2207,0.00245856,0.240517,20.8731,176.885,0.191009,0.0,0.0
664,165.75,32.7732,37.7431,137.478,99.2998,96.5779,0.00252742,0.269172,20.8339,176.725,0.252205,0.0,0.0
668,166.75,33.2392,38.6206,137.751,99.3083,97.125,0.00258483,0.294597,20.7995,176.625,0.20173,0.0,0.0
672,167.75,34.1792,39.1703,135.932,99.3124,97.0613,0.00269313,0.319387,20.7668,176.384,0.20805,0.0,0.0
676,168.75,34.4497,40.4445,132.932,99.3413,96.6051,0.00283034,0.340939,20.7343,176.284,0.253436,0.0,0.0
680,169.75,35.4164,41.5703,135.216,99.3498,96.7004,0.00298686,0.359667,20.7081,176.084,0.245274,0.0,0.0
684,170.75,36.0913,42.909,131.718,99.3746,97.3767,0.00314659,0.378369,20.6811,175.904,0.184298,0.0,0.0
688,171.75,36.8861,43.8802,139.032,99.3925,97.126,0.00331736,0.395928,20.6496,175.754,0.209322,0.0,0.0
692,172.75,37.6883,44.6207,135.771,99.4002,97.0672,0.00344621,0.409451,20.6226,175.564,0.21552,0.0,0.0
696,173.75,38.4825,45.3056,142.371,99.4152,97.0754,0.00353689,0.420612,20.5992,175.474,0.21612,0.0,0.0
700,174.75,39.0165,46.6345,130.21,99.4266,97.5739,0.00356892,0.43046,20.5787,175.334,0.170683,0.0,0.0
704,175.75,39.8861,47.1648,128.235,99.4465,96.9127,0.00356477,0.44027,20.5607,175.203,0.234203,0.0,0.0
708,176.75,40.3512,48.0731,132.613,99.4802,97.195,0.00354604,0.452603,20.5449,175.073,0.210888,0.0,0.0
712,177.75,41.2715,49.0704,133.381,99.5115,96.6945,0.00352002,0.465111,20.5304,174.833,0.260582,0.0,0.0
716,178.75,41.6612,49.8808,131.759,99.5111,96.6489,0.00349839,0.476054,20.5137,174.673,0.264831,0.0,0.0
720,179.75,42.6044,50.6557,135.573,99.5481,96.986,0.00347962,0.483939,20.501,174.493,0.236601,0.0,0.0
724,180.75,43.1712,51.7729,131.878,99.5635,96.8928,0.0034673,0.489871,20.4871,174.243,0.24674,0.0,0.0
728,181.75,43.7604,52.3866,125.87,99.5822,96.2782,0.00350067,0.4948,20.4774,174.223,0.306184,0.0,0.0
732,182.75,44.2813,53.6592,134.432,99.607,96.3768,0.00354814,0.49906,20.4696,173.952,0.299152,0.0,0.0
736,183.75,45.4464,53.5431,130.895,99.6302,96.5017,0.0035857,0.505734,20.4626,173.852,0.289513,0.0,0.0
740,184.75,45.3606,54.1741,129.631,99.6716,96.2481,0.00361492,0.51346,20.4557,173.672,0.317166,0.0,0.0
744,185.75,46.052,55.4091,126.123,99.6899,96.7601,0.00363614,0.521757,20.4484,173.532,0.270681,0.0,0.0
748,186.75,46.8178,56.0368,132.462,99.722,96.9399,0.00364626,0.529069,20.44,173.302,0.256759,0.0,0.0
752,187.75,47.1909,56.2162,133.669,99.7354,96.9797,0.00364984,0.535037,20.431,173.122,0.254251,0.0,0.0
756,188.75,47.885,57.5452,129.97,99.759,96.3292,0.00365447,0.540542,20.4219,172.951,0.31747,0.0,0.0
760,189.75,48.8909,58.5301,129.663,99.776,96.6183,0.00366895,0.546091,20.4133,172.791,0.291832,0.0,0.0
764,190.75,49.4841,59.1875,134.027,99.7972,96.0955,0.00368761,0.551286,20.4064,172.561,0.342984,0.0,0.0
768,191.75,49.5479,59.3206,131.568,99.8309,96.6605,0.00372151,0.556699,20.3999,172.431,0.292851,0.0,0.0
772,192.75,50.6165,60.2202,128.983,99.8553,96.7611,0.00377123,0.56555,20.3924,172.171,0.285629,0.0,0.0
776,193.75,51.0502,61.3961,134.719,99.8918,96.8456,0.00382488,0.574367,20.3853,172.011,0.281029,0.0,0.0
780,194.75,51.3708,61.8612,127.618,99.9317,96.2228,0.00386231,0.581349,20.3803,171.78,0.343193,0.0,0.0
784,195.75,52.1316,62.6141,126.478,99.9634,97.2392,0.00391528,0.58991,20.3719,171.65,0.250725,0.0,0.0
788,196.75,52.6996,63.3534,128.332,99.98,96.2631,0.0039615,0.59821,20.3621,171.42,0.343782,0.0,0.0
792,197.75,53.614,64.207,130.924,100.002,96.5478,0.00401532,0.606301,20.3521,171.22,0.319011,0.0,0.0
796,198.75,54.097,64.5233,119.949,100.042,96.1834,0.00409312,0.614192,20.3417,170.99,0.356936,0.0,0.0
800,199.75,54.6186,65.6892,123.59,100.071,96.2102,0.00418284,0.621112,20.3316,170.78,0.357068,0.0,0.0
804,200.75,55.0741,66.0317,133.587,100.115,96.285,0.00426346,0.626289,20.3223,170.579,0.353992,0.0,0.0
808,201.75,55.7944,66.7394,124.522,100.144,96.5896,0.00433037,0.632028,20.3134,170.429,0.327944,0.0,0.0
812,202.75,56.2592,67.545,124.229,100.173,95.4902,0.00438556,0.638217,20.3046,170.159,0.434439,0.0,0.0
816,203.75,57.246,69.0776,125.208,100.201,95.8958,0.00443317,0.64373,20.2985,169.919,0.398474,0.0,0.0
820,204.75,57.6302,69.3407,123.631,100.242,95.5883,0.00448474,0.651907,20.2928,169.759,0.431374,0.0,0.0
824,205.75,57.9436,69.8257,129.601,100.269,96.2257,0.00453757,0.660107,20.2845,169.508,0.373455,0.0,0.0
828,206.75,58.7878,70.7947,126.14,100.303,96.5182,0.00456293,0.668768,20.2756,169.308,0.349004,0.0,0.0
832,207.75,59.3181,71.478,123.416,100.34,95.1987,0.00454115,0.677384,20.2674,169.088,0.477335,0.0,0.0
836,208.75,59.4123,71.6085,123.959,100.364,95.8108,0.00450079,0.685471,20.2571,168.898,0.421341,0.0,0.0
840,209.75,60.5331,71.7732,130.489,100.387,96.9404,0.0044562,0.693339,20.2459,168.598,0.317042,0.0,0.0
844,210.75,61.2434,73.0001,125.62,100.419,95.1894,0.00443656,0.702157,20.2361,168.417,0.485342,0.0,0.0
848,211.75,61.5573,73.5972,126.375,100.437,96.1339,0.00446741,0.710428,20.2271,168.157,0.397366,0.0,0.0
852,212.75,61.9814,73.9024,123.971,100.458,96.5784,0.00454912,0.717437,20.2167,167.897,0.357411,0.0,0.0
856,213.75,62.5166,75.2277,122.106,100.494,95.8876,0.00466537,0.722353,20.2067,167.677,0.425822,0.0,0.0
860,214.75,63.3438,75.8757,127.054,100.507,95.5407,0.00478918,0.726093,20.1967,167.427,0.459883,0.0,0.0
864,215.75,63.2388,76.368,123.366,100.531,94.9917,0.00489826,0.730525,20.1873,167.196,0.514303,0.0,0.0
868,216.75,64.6205,76.6964,124.834,100.554,93.9574,0.0050344,0.736211,20.1811,166.926,0.615707,0.0,0.0
872,217.75,64.2135,77.6503,128.611,100.565,94.4665,0.00513988,0.743876,20.1758,166.716,0.567692,0.0,0.0
876,218.75,64.9271,77.2969,130.001,100.59,94.9825,0.00520908,0.752708,20.1701,166.446,0.520502,0.0,0.0
880,219.75,65.2946,78.2074,132.017,100.595,94.4961,0.00524756,0.762707,20.1619,166.206,0.567559,0.0,0.0
884,220.75,65.7112,78.8105,130.46,100.62,94.9305,0.00527099,0.773263,20.1538,165.925,0.528219,0.0,0.0
888,221.75,66.6871,79.7341,130.436,100.627,95.4362,0.00530111,0.782374,20.1459,165.765,0.480552,0.0,0.0
892,222.75,66.5777,79.7936,126.164,100.644,95.083,0.0053332,0.790621,20.1378,165.475,0.51581,0.0,0.0
896,223.75,67.3046,80.3898,125.24,100.651,94.2605,0.00540738,0.797741,20.1284,165.265,0.595271,0.0,0.0
900,224.75,67.5023,80.3273,120.941,100.648,94.2931,0.00547221,0.804015,20.1173,164.964,0.591809,0.0,0.0
904,225.75,68.1693,81.1792,121.764,100.662,94.8751,0.0055448,0.808708,20.1073,164.704,0.537251,0.0,0.0
908,226.75,68.4882,81.7116,122.727,100.664,93.7232,0.00564711,0.812869,20.0992,164.464,0.64832,0.0,0.0
912,227.75,68.758,82.4428,122.553,100.672,93.9603,0.00572894,0.818118,20.0908,164.234,0.626089,0.0,0.0
916,228.75,69.1237,82.7918,115.993,100.69,93.6435,0.00585904,0.824368,20.0836,164.004,0.658345,0.0,0.0
920,229.75,69.8068,83.0047,117.59,100.679,93.9457,0.00595598,0.830071,20.0775,163.733,0.628157,0.0,0.0
924,230.75,70.1001,83.8255,120.895,100.673,93.711,0.00602982,0.836205,20.0705,163.493,0.650266,0.0,0.0
928,231.75,70.1955,84.4635,122.121,100.669,94.3829,0.00610849,0.846051,20.0632,163.233,0.585068,0.0,0.0
932,232.75,71.2914,84.6798,123.966,100.665,94.0157,0.00618273,0.855344,20.0566,162.973,0.62012,0.0,0.0
936,233.75,71.6486,85.4943,126.519,100.654,94.2163,0.00624883,0.861745,20.0483,162.732,0.599747,0.0,0.0
940,234.75,72.1004,86.3773,123.017,100.65,94.4602,0.00629397,0.867211,20.0373,162.462,0.575959,0.0,0.0
944,235.75,72.5374,86.7672,123.563,100.644,94.0331,0.0063203,0.873561,20.0268,162.172,0.616526,0.0,0.0
948,236.75,73.1937,87.1549,116.643,100.622,93.7246,0.00633757,0.879418,20.0193,161.932,0.644368,0.0,0.0
952,237.75,73.5161,87.7384,116.758,100.618,93.5148,0.0063489,0.88578,20.0133,161.702,0.664308,0.0,0.0
956,238.75,73.8248,88.5168,124.806,100.596,92.9177,0.00636182,0.894312,20.0069,161.411,0.720491,0.0,0.0
960,239.75,74.3321,89.2445,118.427,100.583,93.3481,0.00637177,0.902626,19.999,161.131,0.677377,0.0,0.0
964,240.75,74.7563,89.1082,126.029,100.561,93.8981,0.00637445,0.906852,19.9906,160.861,0.622056,0.0,0.0
968,241.75,75.3826,89.8627,119.149,100.544,93.4982,0.00637406,0.908624,19.9826,160.611,0.659239,0.0,0.0
972,242.75,76.0394,89.9489,122.789,100.531,93.6639,0.00638056,0.911022,19.9732,160.33,0.642075,0.0,0.0
976,243.75,76.145,90.8299,124.579,100.513,93.299,0.00639799,0.91272,19.9662,160.07,0.675842,0.0,0.0
980,244.75,76.2727,91.1692,113.471,100.496,93.4973,0.00644955,0.913669,19.961,159.81,0.655042,0.0,0.0
984,245.75,76.8349,91.1535,121.278,100.477,93.4482,0.00653812,0.914043,19.9571,159.58,0.658118,0.0,0.0
988,246.75,77.0977,91.7882,124.335,100.469,92.9182,0.006653,0.913587,19.9545,159.35,0.709,0.0,0.0
992,247.75,77.5808,92.1397,120.896,100.454,92.6281,0.00680595,0.91391,19.9528,159.119,0.735976,0.0,0.0
996,248.75,78.2827,92.4712,122.089,100.444,91.8629,0.00695183,0.916087,19.9517,158.869,0.810404,0.0,0.0
1000,249.75,77.9422,92.4768,119.189,100.436,92.6427,0.00707389,0.919075,19.9502,158.649,0.732969,0.0,0.0
1004,250.75,77.9648,92.7506,118.427,100.411,93.2514,0.00714572,0.921324,19.9492,158.409,0.67126,0.0,0.0
1008,251.75,78.4397,92.7607,120.505,100.416,93.6673,0.00719284,0.918478,19.9485,158.189,0.631286,0.0,0.0
1012,252.75,78.8042,93.0642,123.708,100.393,92.9925,0.00711666,0.915375,19.9464,157.978,0.694878,0.0,0.0
1016,253.75,78.7799,93.3778,120.454,100.376,92.7486,0.00705039,0.913046,19.9445,157.758,0.717165,0.0,0.0
1020,254.75,78.8605,93.482,126.334,100.365,93.9724,0.00701636,0.909522,19.9434,157.538,0.597185,0.0,0.0
1024,255.75,78.9333,93.5652,123.433,100.353,92.1277,0.00701031,0.904979,19.946,157.308,0.77606,0.0,0.0
1028,256.75,79.1801,93.1645,119.449,100.358,92.8958,0.00702497,0.899796,19.9486,157.088,0.701084,0.0,0.0
1032,257.75,79.2366,93.4606,126.282,100.331,92.221,0.00706026,0.895598,19.952,156.867,0.764856,0.0,0.0
1036,258.75,78.8653,92.8565,121.566,100.324,92.7904,0.0071093,0.88871,19.9558,156.657,0.70834,0.0,0.0
1040,259.75,78.8133,92.778,126.749,100.312,91.8926,0.00720264,0.879994,19.9606,156.467,0.795539,0.0,0.0
1044,260.75,79.0198,92.6792,125.863,100.309,91.5457,0.00731248,0.868587,19.9654,156.257,0.829564,0.0,0.0
1048,261.75,78.8257,92.6391,125.443,100.3,90.249,0.00741975,0.85683,19.971,156.077,0.95817,0.0,0.0
1052,262.75,78.8026,91.9549,131.811,100.285,90.9418,0.00748565,0.849084,19.9803,155.846,0.887454,0.0,0.0
1056,263.75,78.8928,92.0115,124.482,100.273,91.2207,0.00752561,0.837529,19.992,155.626,0.858603,0.0,0.0
1060,264.75,78.688,91.3761,124.317,100.28,90.762,0.00750759,0.825353,20.004,155.406,0.904966,0.0,0.0
1064,265.75,78.5056,91.7251,121.287,100.274,90.2767,0.00746964,0.811678,20.0133,155.236,0.953033,0.0,0.0
1068,266.75,78.1441,91.2794,123.177,100.276,91.6258,0.00741477,0.798357,20.0239,154.976,0.818607,0.0,0.0
1072,267.75,78.4872,91.1853,125.721,100.289,93.2655,0.00740729,0.787966,20.0374,154.766,0.658867,0.0,0.0
1076,268.75,78.3935,90.5952,128.483,100.286,93.6343,0.00746815,0.780038,20.0535,154.605,0.622729,0.0,0.0
1080,269.75,77.934,90.5535,129.602,100.284,94.8149,0.00756768,0.772708,20.0706,154.385,0.508885,0.0,0.0
1084,270.75,77.8094,90.4362,127.443,100.277,94.5423,0.0076928,0.767136,20.0813,154.205,0.534345,0.0,0.0
1088,271.75,77.862,90.1599,127.062,100.284,95.1302,0.0078657,0.760085,20.0921,153.965,0.478759,0.0,0.0
1092,272.75,77.9221,90.3111,128.599,100.288,95.6257,0.00803074,0.754101,20.1004,153.825,0.432015,0.0,0.0
1096,273.75,77.8851,89.9629,136.573,100.298,94.1255,0.00816966,0.748742,20.107,153.615,0.576355,0.0,0.0
1100,274.75,77.8826,89.1046,132.554,100.314,93.8534,0.00826186,0.745225,20.1135,153.474,0.604092,0.0,0.0
1104,275.75,77.5295,88.8364,134.372,100.318,94.9417,0.00823011,0.741527,20.1212,153.304,0.499845,0.0,0.0
1108,276.75,76.9935,88.4907,128.116,100.31,94.0011,0.00811087,0.739299,20.1279,153.164,0.589419,0.0,0.0
1112,277.75,77.1975,87.898,130.66,100.333,95.9022,0.00788282,0.737877,20.134,153.004,0.409865,0.0,0.0
1116,278.75,76.4678,87.548,128.245,100.322,94.1119,0.00756117,0.736032,20.1393,152.844,0.579872,0.0,0.0
1120,279.75,76.2457,86.5189,131.968,100.338,94.2727,0.00726997,0.732422,20.1434,152.754,0.565776,0.0,0.0
1124,280.75,75.64,85.4715,132.181,100.335,94.4034,0.00688169,0.725444,20.1461,152.614,0.552949,0.0,0.0
1128,281.75,74.8528,85.4734,136.446,100.355,95.6894,0.00648112,0.715193,20.1485,152.494,0.431969,0.0,0.0
1132,282.75,73.7103,84.0423,139.373,100.362,95.8166,0.00611665,0.699604,20.1515,152.423,0.420531,0.0,0.0
1136,283.75,73.4334,82.3063,144.281,100.366,97.0842,0.00589633,0.686055,20.1552,152.333,0.301643,0.0,0.0
1140,284.75,72.0665,81.9668,144.661,100.377,99.0989,0.00567017,0.662348,20.1651,152.263,0.11632,0.0,0.0
1144,285.75,71.9403,80.3744,144.038,100.394,100.219,0.00553167,0.632839,20.1803,152.243,0.0158143,0.0,0.0
1148,286.75,70.6304,79.195,145.536,100.406,100.566,0.00545217,0.605087,20.1978,152.203,-0.0144387,0.0,0.0
1152,287.75,70.04,78.2812,142.033,100.411,100.517,0.00544616,0.571677,20.2182,152.183,-0.00952596,0.0,0.0
1156,288.75,69.228,76.3572,148.355,100.435,100.617,0.00544223,0.5389,20.2454,152.133,-0.0163897,0.0,0.0
1160,289.75,67.9123,75.1976,143.902,100.451,100.64,0.005416,0.507519,20.2749,152.103,-0.0170535,0.0,0.0
1164,290.75,66.8491,74.264,145.197,100.448,100.589,0.00536151,0.470014,20.3065,152.083,-0.0127535,0.0,0.0
1168,291.75,65.9727,72.8494,147.519,100.459,100.652,0.00529707,0.430613,20.3493,152.053,-0.0173781,0.0,0.0
1172,292.75,65.6018,71.0804,145.225,100.461,100.716,0.00521648,0.392051,20.3954,152.003,-0.0230184,0.0,0.0
1176,293.75,63.9818,70.3357,151.424,100.477,100.608,0.00513228,0.352671,20.4395,151.983,-0.0118572,0.0,0.0
1180,294.75,63.8807,68.8208,145.568,100.489,100.658,0.00504116,0.316318,20.481,151.983,-0.0152757,0.0,0.0
1184,295.75,62.4848,67.9918,144.078,100.492,101,0.00496971,0.283882,20.5236,151.953,-0.045793,0.0,0.0
1188,296.75,61.8073,66.9954,146.311,100.511,100.437,0.00494063,0.254265,20.5661,151.953,0.00665569,0.0,0.0
1192,297.75,61.2314,65.6887,148.403,100.514,100.573,0.00496075,0.231858,20.5995,151.923,-0.0053259,0.0,0.0
1196,298.75,60.8132,64.2945,148.371,100.534,100.757,0.00509507,0.20958,20.6423,151.883,-0.0201265,0.0,0.0
1200,299.75,59.6328,64.0406,149.465,100.541,100.613,0.00535267,0.191085,20.6789,151.863,-0.00650577,0.0,0.0
1204,300.75,59.0647,62.7817,148.707,100.533,100.555,0.00569575,0.176941,20.7085,151.843,-0.00194302,0.0,0.0
1208,301.75,58.4142,61.6317,149.731,100.545,100.544,0.00621603,0.165294,20.735,151.833,8.43756e-05,0.0,0.0
1212,302.75,57.3107,60.7334,147.143,100.542,100.688,0.00674864,0.155335,20.7607,151.803,-0.0131706,0.0,0.0
1216,303.75,56.6753,60.1716,152.531,100.553,100.653,0.00724303,0.147164,20.783,151.803,-0.00907116,0.0,0.0
1220,304.75,55.9946,59.4777,147.226,100.553,100.715,0.00767045,0.140251,20.8019,151.763,-0.0146034,0.0,0.0
1224,305.75,55.4316,58.4894,148.198,100.581,100.683,0.00806346,0.134946,20.8171,151.763,-0.00922005,0.0,0.0
1228,306.75,55.2466,57.8323,146.357,100.564,100.771,0.00850214,0.130751,20.8288,151.763,-0.0186457,0.0,0.0
1232,307.75,54.3155,56.767,148.71,100.575,100.716,0.0088071,0.127983,20.8351,151.713,-0.012747,0.0,0.0
1236,308.75,53.8137,56.4048,147.004,100.575,100.831,0.00931245,0.125108,20.8423,151.693,-0.0231154,0.0,0.0
1240,309.75,52.9455,55.5737,149.334,100.585,100.884,0.00977484,0.122832,20.8486,151.673,-0.0269266,0.0,0.0
1244,310.75,52.5734,55.3028,148.89,100.577,100.655,0.0102442,0.121244,20.8534,151.633,-0.00708331,0.0,0.0
1248,311.75,52.4085,54.4771,148.805,100.586,100.559,0.0106685,0.120365,20.8574,151.643,0.00247253,0.0,0.0
1252,312.75,51.4483,53.8854,151.479,100.596,100.762,0.011073,0.120014,20.8601,151.583,-0.0149983,0.0,0.0
1256,313.75,51.0763,53.3571,146.196,100.594,100.532,0.011479,0.119774,20.8619,151.573,0.00566224,0.0,0.0
1260,314.75,50.4607,52.7484,150.086,100.592,100.687,0.0118497,0.119386,20.8631,151.573,-0.00858012,0.0,0.0
1264,315.75,50.218,52.4128,152.295,100.618,100.717,0.0122554,0.118562,20.8639,151.523,-0.00886868,0.0,0.0
1268,316.75,50.3119,51.9227,145.405,100.608,100.59,0.01264,0.117512,20.8644,151.523,0.001603,0.0,0.0
1272,317.75,49.074,51.0825,148.451,100.615,100.418,0.0130794,0.116153,20.8648,151.503,0.0177546,0.0,0.0
1276,318.75,48.8231,50.4284,145.846,100.615,100.582,0.013544,0.114395,20.8653,151.473,0.00297863,0.0,0.0
1280,319.75,48.7854,50.4931,149.242,100.616,100.508,0.0140062,0.11243,20.8656,151.453,0.0096732,0.0,0.0
1284,320.75,48.462,50.1939,147.947,100.614,100.567,0.0144054,0.110975,20.8663,151.463,0.00426323,0.0,0.0
1288,321.75,47.8447,49.5597,148.289,100.615,100.688,0.0147025,0.109361,20.8671,151.433,-0.00661565,0.0,0.0
1292,322.75,46.9097,48.5814,150.676,100.619,100.553,0.0149798,0.107828,20.8696,151.433,0.00593142,0.0,0.0
1296,323.75,47.2951,48.9202,146.272,100.634,100.606,0.0151496,0.106448,20.8712,151.433,0.00258932,0.0,0.0
1300,324.75,46.4588,47.8099,148.724,100.627,100.742,0.0152545,0.105419,20.8731,151.423,-0.0103755,0.0,0.0
1304,325.75,45.8765,47.3859,149.377,100.627,100.774,0.0153285,0.104627,20.876,151.413,-0.013182,0.0,0.0
1308,326.75,45.7958,47.2459,150.578,100.639,100.666,0.0154304,0.103977,20.8778,151.373,-0.00248294,0.0,0.0
1312,327.75,45.6702,46.8555,146.408,100.648,100.578,0.0156112,0.10353,20.8791,151.343,0.00629789,0.0,0.0
1316,328.75,45.0839,46.7611,148.374,100.653,100.812,0.0158184,0.103465,20.8799,151.353,-0.0143298,0.0,0.0
1320,329.75,45.0924,46.6594,149.925,100.667,100.629,0.016088,0.104204,20.8804,151.333,0.00341766,0.0,0.0
1324,330.75,44.5518,45.8202,148.645,100.667,100.603,0.0163512,0.105134,20.8807,151.323,0.00578332,0.0,0.0
1328,331.75,44.9505,46.0352,150.351,100.679,100.913,0.0166397,0.105879,20.881,151.333,-0.0210768,0.0,0.0
1332,332.75,44.5811,45.8196,148.752,100.682,100.554,0.0169214,0.106112,20.8803,151.312,0.0116029,0.0,0.0
1336,333.75,43.4901,45.183,149.399,100.683,100.537,0.017189,0.105624,20.8799,151.312,0.0131304,0.0,0.0
1340,334.75,43.6367,44.9121,148.069,100.687,100.562,0.0174184,0.104877,20.8788,151.323,0.0112604,0.0,0.0
1344,335.75,43.5157,44.7315,151.889,100.692,100.81,0.0176461,0.103962,20.8781,151.323,-0.0105948,0.0,0.0
1348,336.75,41.2664,42.5443,149.688,100.696,100.626,0.0178433,0.102942,20.8776,151.323,0.00627951,0.0,0.0
1352,337.75,41.3195,42.0092,146.927,100.705,100.766,0.0179858,0.101843,20.8777,151.323,-0.00553047,0.0,0.0
1356,338.75,41.3085,41.6893,147.948,100.71,100.971,0.0180835,0.100826,20.8787,151.312,-0.0234983,0.0,0.0
1360,339.75,40.7599,41.7083,147.271,100.712,100.709,0.0181702,0.0996761,20.8804,151.312,0.000212019,0.0,0.0
1364,340.75,40.3373,41.2637,148.622,100.701,100.765,0.0182598,0.0987523,20.8816,151.302,-0.00576482,0.0,0.0
1368,341.75,40.1205,41.3428,147.699,100.715,100.604,0.0183318,0.0980859,20.8831,151.282,0.0100903,0.0,0.0
1372,342.75,39.3746,40.68,148.2,100.701,100.497,0.018379,0.0975899,20.8841,151.272,0.0184542,0.0,0.0
1376,343.75,39.8386,41.0299,153.38,100.699,100.831,0.018383,0.0971503,20.8848,151.252,-0.0118593,0.0,0.0
1380,344.75,39.7074,40.4744,150.749,100.695,100.84,0.0183621,0.0968407,20.8853,151.232,-0.0130498,0.0,0.0
1384,345.75,39.0807,40.4358,148.193,100.672,100.574,0.0182852,0.0965685,20.8866,151.212,0.00880869,0.0,0.0
1388,346.75,39.4161,39.6016,147.538,100.683,100.725,0.0182426,0.0960138,20.8875,151.212,-0.00374469,0.0,0.0
1392,347.75,38.5617,39.9547,152.972,100.665,100.695,0.0182849,0.0951373,20.888,151.162,-0.00272262,0.0,0.0
1396,348.75,38.5451,39.3473,150.756,100.656,100.614,0.0184414,0.0940852,20.8892,151.112,0.00377991,0.0,0.0
1400,349.75,38.6372,39.2807,154.945,100.639,100.582,0.0187906,0.0929677,20.8898,151.122,0.00514007,0.0,0.0
1404,350.75,38.0229,39.0395,153.961,100.627,100.761,0.0192554,0.0920257,20.8901,151.152,-0.0121252,0.0,0.0
1408,351.75,37.9485,39.1148,148.208,100.6,100.828,0.0197265,0.0913007,20.8905,151.132,-0.0204566,0.0,0.0
1412,352.75,37.7281,38.5175,153.651,100.601,100.562,0.0202128,0.0907448,20.8916,151.112,0.00352255,0.0,0.0
1416,353.75,37.7194,38.3605,150.364,100.563,100.56,0.0206693,0.0904855,20.8929,151.122,0.000296393,0.0,0.0
1420,354.75,37.606,38.1543,146.589,100.54,100.477,0.0210774,0.090449,20.8935,151.082,0.00566873,0.0,0.0
1424,355.75,37.6116,38.3502,147.151,100.525,100.378,0.0213853,0.0904535,20.8933,151.022,0.0133033,0.0,0.0
1428,356.75,37.717,38.0511,146.723,100.48,100.572,0.0216222,0.0904121,20.8932,151.022,-0.0082829,0.0,0.0
1432,357.75,37.1023,38.1588,151.47,100.452,100.564,0.0217552,0.090349,20.8931,151.032,-0.0100707,0.0,0.0
1436,358.75,36.906,36.882,148.334,100.422,100.379,0.0218269,0.0903706,20.8931,151.032,0.00389344,0.0,0.0
1440,359.75,36.7,37.1319,149.628,100.372,100.375,0.0218836,0.0905929,20.8932,151.012,-0.000315875,0.0,0.0
1444,360.75,36.2845,37.2399,148.768,100.328,100.254,0.0219382,0.090895,20.8934,151.012,0.00674,0.0,0.0
1448,361.75,36.8847,37.4694,144.939,100.285,100.268,0.0219817,0.0911501,20.8935,150.982,0.00156839,0.0,0.0
1452,362.75,36.0025,37.1935,151.36,100.24,99.9958,0.0220113,0.0914019,20.8936,150.952,0.0221411,0.0,0.0
1456,363.75,36.3947,37.2135,152.218,100.186,100.038,0.0220407,0.0914863,20.8937,150.962,0.0134944,0.0,0.0
1460,364.75,35.7951,36.9173,147.426,100.142,100.123,0.022055,0.0913247,20.8937,150.962,0.00173495,0.0,0.0
1464,365.75,35.2982,36.469,150.693,100.097,100.202,0.0220718,0.0910666,20.8938,150.952,-0.00948969,0.0,0.0
1468,366.75,35.8364,36.3961,150.788,100.049,99.9477,0.0220829,0.0908613,20.8944,150.952,0.00920205,0.0,0.0
1472,367.75,35.9354,36.153,148.423,99.9922,100.128,0.0220901,0.0907801,20.8947,150.922,-0.0123527,0.0,0.0
1476,368.75,35.2901,36.0933,147.112,99.9398,99.8957,0.0220956,0.0906847,20.8947,150.902,0.00400373,0.0,0.0
1480,369.75,35.1138,36.0447,150.367,99.8931,99.8442,0.022101,0.0905073,20.8948,150.892,0.00443839,0.0,0.0
1484,370.75,35.3458,35.7122,152.859,99.8293,99.5245,0.0220888,0.0903227,20.8948,150.862,0.0277432,0.0,0.0
1488,371.75,35.1292,36.0301,147.833,99.7773,99.6275,0.02206,0.0902239,20.8948,150.802,0.0136284,0.0,0.0
1492,372.75,34.9441,35.4368,151.666,99.7135,99.7538,0.0220259,0.090143,20.8948,150.782,-0.00367326,0.0,0.0
1496,373.75,35.2012,35.4249,153.817,99.6574,99.6572,0.0219685,0.0901103,20.8948,150.842,2.05531e-05,0.0,0.0
1500,374.75,34.7202,35.4772,150.844,99.6042,99.6747,0.0219226,0.0900734,20.8948,150.842,-0.00642025,0.0,0.0
1504,375.75,34.5416,35.6051,148.365,99.5517,99.421,0.0218916,0.0900759,20.8948,150.812,0.0119205,0.0,0.0
1508,376.75,34.4848,35.3457,149.977,99.4973,99.5342,0.0218784,0.0902398,20.8948,150.832,-0.00336917,0.0,0.0
1512,377.75,34.6279,34.8923,149.554,99.4424,99.2947,0.0218682,0.090495,20.8948,150.772,0.013488,0.0,0.0
1516,378.75,34.1518,34.5457,147.974,99.3941,99.1718,0.021862,0.0906925,20.8948,150.772,0.0203151,0.0,0.0
1520,379.75,34.7707,34.8053,150.324,99.3421,99.2146,0.0218469,0.0907565,20.8948,150.772,0.0116537,0.0,0.0
1524,380.75,34.0433,34.8069,152.508,99.2669,99.1111,0.0218102,0.0906846,20.894,150.762,0.0142537,0.0,0.0
1528,381.75,34.0137,34.5143,149.127,99.2254,99.2544,0.0217633,0.0905305,20.8935,150.732,-0.00264741,0.0,0.0
1532,382.75,34.3944,34.4981,151.874,99.1905,99.1349,0.0217382,0.0906194,20.8932,150.702,0.00508926,0.0,0.0
1536,383.75,33.8729,34.6697,150.786,99.1458,99.0508,0.0217244,0.0908348,20.8932,150.712,0.00869521,0.0,0.0
1540,384.75,33.8951,34.3311,151.407,99.0946,98.9546,0.0217232,0.0910395,20.8938,150.702,0.0128258,0.0,0.0
1544,385.75,33.7203,34.4135,150.125,99.0536,98.8832,0.0217147,0.0911231,20.8941,150.672,0.0156188,0.0,0.0
1548,386.75,33.7262,33.8089,147.41,99.0491,99.0231,0.0216888,0.0912843,20.8941,150.652,0.00237736,0.0,0.0
1552,387.75,33.5982,34.102,152.113,98.9967,99.1835,0.0216372,0.0915746,20.8936,150.602,-0.0171055,0.0,0.0
1556,388.75,33.4137,33.6003,150.278,98.969,99.0455,0.0215759,0.0918074,20.8932,150.572,-0.00700645,0.0,0.0
1560,389.75,33.0375,34.0033,145.857,98.967,98.8701,0.0215097,0.0919361,20.893,150.572,0.00888974,0.0,0.0
1564,390.75,33.4136,33.9069,150.125,98.9349,98.856,0.0214028,0.0917988,20.8929,150.542,0.00723938,0.0,0.0
1568,391.75,33.0493,33.9881,155.048,98.9219,98.6267,0.0212876,0.0915913,20.893,150.502,0.0271198,0.0,0.0
1572,392.75,33.3256,33.9243,149.675,98.9187,98.6573,0.0212097,0.0916069,20.8922,150.522,0.0240067,0.0,0.0
1576,393.75,32.952,33.2801,149.862,98.9158,98.771,0.0211886,0.0919385,20.8917,150.502,0.0132957,0.0,0.0
1580,394.75,33.2046,33.4935,149.222,98.9223,98.7734,0.0212123,0.0922405,20.8914,150.502,0.0136683,0.0,0.0
1584,395.75,33.0612,33.2312,149.737,98.9174,98.8478,0.0212735,0.0922714,20.8912,150.472,0.00639409,0.0,0.0
1588,396.75,32.6451,33.1493,151.736,98.9443,98.9634,0.0213341,0.0921983,20.8911,150.452,-0.00175422,0.0,0.0
1592,397.75,33.1039,32.6403,144.873,98.9609,98.6787,0.0213721,0.0921983,20.891,150.432,0.0259172,0.0,0.0
1596,398.75,32.9866,33.2439,151.199,98.9686,98.7904,0.0213716,0.0922928,20.8909,150.412,0.0163542,0.0,0.0
1600,399.75,32.7385,33.1629,151.794,98.9894,98.8755,0.0213761,0.0924689,20.8909,150.402,0.010449,0.0,0.0
1604,400.75,32.3959,32.2258,148.435,99.0483,98.9634,0.0213987,0.0927183,20.8909,150.392,0.00778197,0.0,0.0
1608,401.75,32.3031,32.8195,150.977,99.0491,98.89,0.021416,0.0926676,20.8908,150.412,0.0145842,0.0,0.0
1612,402.75,31.828,32.9873,149.49,99.0938,99.0523,0.0214075,0.0925005,20.8902,150.392,0.00380045,0.0,0.0
1616,403.75,31.9708,32.2254,154.284,99.1397,99.0562,0.0213668,0.0924445,20.8896,150.382,0.00764795,0.0,0.0
1620,404.75,32.0431,33.1721,151.823,99.1791,99.2282,0.021319,0.0923633,20.8892,150.362,-0.00448656,0.0,0.0
1624,405.75,32.3411,32.4089,147.571,99.2108,98.9993,0.0212739,0.092204,20.8889,150.352,0.0193631,0.0,0.0
1628,406.75,31.7741,32.128,149.254,99.273,99.3487,0.0212529,0.0919287,20.8888,150.352,-0.00691389,0.0,0.0
1632,407.75,31.5654,32.737,151.27,99.3222,99.0917,0.0212739,0.0916142,20.8893,150.352,0.0210846,0.0,0.0
1636,408.75,32.0228,31.9625,147.907,99.3701,99.1475,0.0213201,0.0913009,20.8898,150.332,0.0203486,0.0,0.0
1640,409.75,32.0877,31.6614,148.88,99.4213,99.2287,0.0213941,0.0909883,20.8902,150.372,0.0176002,0.0,0.0
1644,410.75,31.3848,31.8579,150.58,99.4693,99.0402,0.0214538,0.090973,20.8908,150.332,0.03923,0.0,0.0
1648,411.75,32.0011,32.0282,154.501,99.5099,99.3117,0.021488,0.0910287,20.8916,150.332,0.0180882,0.0,0.0
1652,412.75,31.7258,31.7559,152.524,99.5603,99.5546,0.0214908,0.0910617,20.8922,150.302,0.000512732,0.0,0.0
1656,413.75,31.8174,32.1819,149.657,99.62,99.5294,0.0214779,0.0910454,20.8925,150.322,0.00825751,0.0,0.0
1660,414.75,31.8242,31.9116,150.421,99.6574,99.5921,0.0214466,0.0910136,20.8927,150.302,0.00595088,0.0,0.0
1664,415.75,31.6968,32.0343,148.493,99.7017,99.7038,0.0214036,0.0909871,20.8929,150.302,-0.000193634,0.0,0.0
1668,416.75,31.2887,32.256,147.504,99.7492,99.7883,0.0213555,0.0909549,20.893,150.272,-0.00355747,0.0,0.0
1672,417.75,31.7371,32.0866,148.24,99.8025,99.5138,0.0213165,0.0908479,20.893,150.282,0.0262796,0.0,0.0
1676,418.75,31.4537,31.9117,152.731,99.8333,99.6887,0.0212735,0.0906144,20.8931,150.262,0.013152,0.0,0.0
1680,419.75,31.4929,31.743,153.849,99.8809,99.5707,0.0212003,0.0903463,20.8931,150.232,0.0282253,0.0,0.0
1684,420.75,31.065,31.7101,151.186,99.9178,99.6645,0.0211196,0.0900945,20.8931,150.232,0.0230421,0.0,0.0
1688,421.75,31.0171,31.3759,149.339,99.941,99.7227,0.0210431,0.0898758,20.8938,150.232,0.0198391,0.0,0.0
1692,422.75,31.3591,31.8247,149.422,99.9772,99.801,0.0209888,0.0897591,20.8944,150.232,0.0160076,0.0,0.0
1696,423.75,30.6491,31.0623,152.307,100.027,99.851,0.0209567,0.0897092,20.8948,150.222,0.0159935,0.0,0.0
1700,424.75,30.8874,31.4437,147.404,100.045,99.7266,0.0209349,0.0895963,20.895,150.212,0.0289262,0.0,0.0
1704,425.75,30.6576,31.5861,151.703,100.067,99.8034,0.0209188,0.0894926,20.8952,150.192,0.0239333,0.0,0.0
1708,426.75,31.3552,31.6747,155.486,100.093,100.043,0.020922,0.0893929,20.8953,150.171,0.00449677,0.0,0.0
1712,427.75,30.5164,31.1723,149.969,100.117,99.87,0.020936,0.089293,20.8962,150.182,0.0223775,0.0,0.0
1716,428.75,30.9216,31.398,152.565,100.125,99.8326,0.0209642,0.0891895,20.8968,150.182,0.0265881,0.0,0.0
1720,429.75,30.2573,31.2736,148.371,100.119,100.005,0.0209995,0.0891484,20.8965,150.161,0.0102988,0.0,0.0
1724,430.75,30.7618,31.3709,154.595,100.141,99.8845,0.0210187,0.0891481,20.8962,150.151,0.0233,0.0,0.0
1728,431.75,30.3068,31.6067,148.024,100.16,99.8797,0.0210018,0.0891212,20.8959,150.131,0.0253984,0.0,0.0
1732,432.75,30.3782,31.5302,151.183,100.145,100.028,0.0209379,0.0890149,20.8958,150.111,0.0105398,0.0,0.0
1736,433.75,30.6754,31.5378,150.26,100.141,100.044,0.0207964,0.0887879,20.8959,150.111,0.00883462,0.0,0.0
1740,434.75,31.2205,31.1301,152.327,100.149,99.9705,0.0206084,0.0884538,20.8966,150.091,0.0161911,0.0,0.0
1744,435.75,30.5581,31.0362,152.172,100.153,100.009,0.0204199,0.0882914,20.897,150.091,0.0130321,0.0,0.0
1748,436.75,30.3643,30.5272,152.637,100.139,99.8486,0.0202837,0.0882651,20.8973,150.071,0.0263832,0.0,0.0
1752,437.75,30.7687,30.9949,148.837,100.136,99.9657,0.0201523,0.0882478,20.8975,150.051,0.0154903,0.0,0.0
1756,438.75,30.6942,30.9476,150.216,100.121,99.9832,0.0200778,0.0882054,20.8976,150.041,0.0124672,0.0,0.0
1760,439.75,30.3508,31.2104,154.647,100.116,99.8821,0.0200612,0.0881017,20.8977,150.041,0.0212379,0.0,0.0
1764,440.75,30.3483,30.926,151.43,100.103,99.6513,0.0200683,0.0879535,20.8978,150.021,0.0410123,0.0,0.0
1768,441.75,30.6453,30.8836,152.194,100.095,100.015,0.0200975,0.0877721,20.8984,150.001,0.00724371,0.0,0.0
1772,442.75,30.3418,30.2392,149.793,100.085,99.8083,0.0201365,0.0876704,20.899,150.001,0.0251125,0.0,0.0
1776,443.75,30.3347,30.7088,153.737,100.062,100.05,0.0201964,0.0876777,20.8993,149.991,0.00107843,0.0,0.0
1780,444.75,30.1408,30.3385,150.109,100.058,99.7937,0.0202915,0.0876994,20.8993,149.981,0.0240067,0.0,0.0
1784,445.75,30.1633,30.6642,155.039,100.049,99.8554,0.0203814,0.0876716,20.8993,149.961,0.0175505,0.0,0.0
1788,446.75,30.1795,30.6442,154.913,100.028,99.7106,0.0204562,0.0876187,20.8993,149.971,0.0287989,0.0,0.0
1792,447.75,29.9552,30.6959,157.705,100.02,99.6747,0.0204985,0.0875271,20.8993,149.941,0.0314081,0.0,0.0
1796,448.75,30.0298,30.6288,149.053,100.001,99.817,0.0205015,0.0873335,20.8993,149.931,0.0167256,0.0,0.0
1800,449.75,29.9823,30.2132,154.663,99.989,99.8738,0.0204715,0.0873133,20.8993,149.921,0.0104534,0.0,0.0
1804,450.75,30.4608,30.2179,157.074,99.9833,99.8097,0.020429,0.0874895,20.8993,149.921,0.0157646,0.0,0.0
1808,451.75,29.4065,30.2428,150.34,99.9593,99.7164,0.0203958,0.0875913,20.8993,149.921,0.0220742,0.0,0.0
1812,452.75,29.6481,30.4661,147.65,99.9455,99.6445,0.0203392,0.0875812,20.8993,149.891,0.0273647,0.0,0.0
1816,453.75,29.6103,30.4313,153.823,99.9353,99.8238,0.0203024,0.0875734,20.8993,149.871,0.0101314,0.0,0.0
1820,454.75,30.0513,30.4556,147.721,99.9219,99.9103,0.0202606,0.0876336,20.8995,149.861,0.0010568,0.0,0.0
1824,455.75,29.8249,30.2551,147.139,99.9146,99.6246,0.0202421,0.0876999,20.8997,149.851,0.0263746,0.0,0.0