File: 01_Data/Masonite_Board/Cone/Masonite_Cone_HF50Scan_221212_R3.csv
Names,Time,Stack TC,Smoke TC,Exh Press,Smoke Comp,Smoke Meas,CO Meter,CO2 Meter,O2 Meter,Sample Mass,Ext Coeff,Start Test,Flame Verif
Chan Gain,,500,500,1,1,1,1,1,1,1,1,1.0,1.0
Offset,,0,0,0.131978,0,0,0,0,0,0,0,0.0,0.0
Gain,,1,1,25.011,13.4278,14.1503,1,1,1,1.00089,1.02125,1.0,1.0
Units,sec,C,C,Pa,%,%,%,%,%,g,/m,,
Baseline,,33.3344,33.9916,155.413,99.5927,99.7696,0.000864624,0.0534629,20.93,-448.726,-0.015893,,
3,0.5,32.1482,33.2328,153.161,99.3126,99.4874,0.00109612,0.0562913,20.9262,105.664,-0.0157609,0.0,0.0
6,1.25,32.2631,32.8678,155.729,99.313,99.4227,0.00107373,0.0567191,20.9263,105.614,-0.00989012,0.0,0.0
9,2,31.5587,33.2201,150.574,99.3068,99.5298,0.0010574,0.057106,20.9263,105.594,-0.0200887,0.0,0.0
12,2.75,32.3759,33.18,156.382,99.306,99.4689,0.00102781,0.0575161,20.9259,105.624,-0.0146804,0.0,0.0
15,3.5,32.4506,32.5031,157.903,99.3134,99.4779,0.00100625,0.0578964,20.9255,105.584,-0.0148318,0.0,0.0
18,4.25,32.5352,32.9357,153.006,99.3011,99.5246,0.00103651,0.058226,20.9247,105.544,-0.0201395,0.0,0.0
21,5,31.9639,32.7083,155.39,99.299,99.4555,0.00107967,0.0585561,20.924,105.534,-0.0141039,0.0,0.0
24,5.75,32.4993,32.6193,154.262,99.3007,99.4611,0.00112012,0.058811,20.9234,105.554,-0.0144606,0.0,0.0
27,6.5,32.1013,32.7451,156.48,99.3019,99.4443,0.00114785,0.0589953,20.923,105.544,-0.0128333,0.0,0.0
30,7.25,31.9201,33.1579,157.536,99.29,99.3838,0.00114504,0.0591169,20.9227,105.474,-0.0084571,0.0,0.0
33,8,32.2502,32.7753,155.376,99.2884,99.4473,0.00112929,0.059104,20.9225,105.454,-0.0143253,0.0,0.0
36,8.75,32.6695,32.5629,153.815,99.2847,99.4378,0.00109437,0.0590496,20.9224,105.484,-0.0138028,0.0,0.0
39,9.5,32.5525,32.947,153.443,99.2847,99.3289,0.00102802,0.058933,20.9223,105.474,-0.0039933,0.0,0.0
42,10.25,32.384,32.9692,156.299,99.2671,99.1605,0.000962217,0.0587483,20.9222,105.404,0.00961892,0.0,0.0
45,11,32.5932,33.0553,152.505,99.2695,99.1644,0.000859515,0.0585712,20.9221,105.394,0.00948984,0.0,0.0
48,11.75,31.7822,32.6513,155.966,99.2691,99.167,0.000777223,0.0583203,20.9221,105.414,0.0092178,0.0,0.0
51,12.5,32.3775,32.9866,153.945,99.2708,99.0651,0.000718625,0.0581516,20.922,105.394,0.0185775,0.0,0.0
54,13.25,32.5022,32.7107,153.645,99.2507,99.0327,0.0006837,0.0580421,20.922,105.344,0.0196943,0.0,0.0
57,14,32.3519,33.0045,151.786,99.2404,98.9498,0.000674969,0.0579752,20.922,105.304,0.0262728,0.0,0.0
60,14.75,32.6594,33.0075,155.355,99.2273,98.9826,0.000676586,0.0579267,20.922,105.344,0.0221192,0.0,0.0
63,15.5,32.3916,33.3096,156.53,99.2273,98.9122,0.000704255,0.0578707,20.922,105.324,0.0284916,0.0,0.0
66,16.25,31.9261,32.675,157.18,99.2376,98.8349,0.000738559,0.0578299,20.9222,105.264,0.0364199,0.0,0.0
69,17,32.3496,33.1387,157.919,99.2101,98.7503,0.000763566,0.0578144,20.9228,105.244,0.0416161,0.0,0.0
72,17.75,32.6681,32.9126,153.471,99.2253,98.6341,0.000772963,0.0578466,20.9232,105.274,0.0535294,0.0,0.0
75,18.5,32.2882,32.8014,154.335,99.2195,98.5413,0.000775923,0.0579342,20.9235,105.244,0.0614472,0.0,0.0
78,19.25,32.275,33.0731,153.24,99.224,98.3569,0.000771429,0.0580111,20.9231,105.194,0.0786329,0.0,0.0
81,20,32.2589,32.985,157.932,99.2101,98.4653,0.000774345,0.0580728,20.9227,105.154,0.0675087,0.0,0.0
84,20.75,32.5134,33.0174,153.878,99.2015,98.391,0.000787587,0.0582193,20.9223,105.164,0.0734909,0.0,0.0
87,21.5,32.2395,33.3796,154.467,99.204,98.182,0.000811733,0.0583545,20.9219,105.164,0.0927634,0.0,0.0
90,22.25,32.6256,33.3846,151.742,99.1908,98.3625,0.000857619,0.0584728,20.9217,105.104,0.0751251,0.0,0.0
93,23,31.8277,33.0223,154.644,99.1921,98.2114,0.000919368,0.0585718,20.9215,105.064,0.0890116,0.0,0.0
96,23.75,32.7045,33.3884,157.429,99.1958,98.2727,0.000964384,0.058644,20.9214,105.054,0.0837529,0.0,0.0
99,24.5,32.2143,33.332,155.794,99.1999,98.2347,0.00101489,0.0586966,20.9213,105.064,0.0875872,0.0,0.0
102,25.25,32.5542,32.8512,154.924,99.1962,98.043,0.00105172,0.0587725,20.9213,105.024,0.104757,0.0,0.0
105,26,32.1219,33.4435,153.688,99.1835,97.7618,0.00104495,0.0588919,20.9216,104.963,0.129333,0.0,0.0
108,26.75,32.3553,33.4653,152.752,99.1892,97.8927,0.00100531,0.0592024,20.9217,104.933,0.117869,0.0,0.0
111,27.5,32.2893,32.6359,154.063,99.1966,97.5831,0.000961615,0.0595713,20.9214,104.953,0.146914,0.0,0.0
114,28.25,33.0991,32.9341,154.228,99.1884,97.6936,0.000880313,0.060006,20.9212,104.893,0.136031,0.0,0.0
117,29,32.7383,33.5406,157.316,99.1798,97.4488,0.000811274,0.0605025,20.921,104.833,0.157735,0.0,0.0
120,29.75,32.5239,33.2528,155.826,99.172,97.3024,0.000744241,0.0610002,20.9209,104.803,0.1705,0.0,0.0
123,30.5,32.9333,32.9018,156.364,99.1867,97.1063,0.000711419,0.0615951,20.9207,104.803,0.189899,0.0,0.0
126,31.25,32.2885,33.3911,155.57,99.1736,97.2959,0.000694333,0.0621287,20.9203,104.753,0.171244,0.0,0.0
129,32,32.2902,33.5097,153.506,99.1572,97.2821,0.000720725,0.0625603,20.92,104.663,0.171035,0.0,0.0
132,32.75,33.0015,33.5129,154.117,99.172,97.0705,0.000761026,0.062997,20.9195,104.603,0.191875,0.0,0.0
135,33.5,32.2775,33.2901,153.826,99.1642,96.7064,0.000799384,0.063401,20.9188,104.613,0.22483,0.0,0.0
138,34.25,32.7873,33.3887,155.468,99.1724,96.8368,0.000852097,0.063747,20.9182,104.593,0.213498,0.0,0.0
141,35,32.1994,33.539,154.796,99.1585,96.9573,0.000895831,0.064025,20.9178,104.483,0.2011,0.0,0.0
144,35.75,32.5197,33.2906,155.962,99.163,96.4344,0.000927061,0.0641462,20.9176,104.443,0.249956,0.0,0.0
147,36.5,32.6227,33.5331,152.172,99.1523,96.3035,0.000948711,0.0641204,20.9167,104.403,0.261157,0.0,0.0
150,37.25,32.2113,33.7262,153.223,99.1593,96.2314,0.000962726,0.0640529,20.9161,104.393,0.268498,0.0,0.0
153,38,32.7652,33.7099,147.452,99.1511,96.114,0.000970333,0.0637392,20.9157,104.293,0.278698,0.0,0.0
156,38.75,32.6844,33.1299,156.993,99.1597,96.088,0.000971414,0.0634279,20.9153,104.243,0.281891,0.0,0.0
159,39.5,33.0177,33.7584,151.233,99.1454,95.7063,0.000977162,0.0630597,20.9151,104.203,0.316256,0.0,0.0
162,40.25,32.658,33.6867,163.65,99.1499,95.8497,0.000983467,0.062649,20.9149,104.193,0.303254,0.0,0.0
165,41,32.676,33.5233,153.896,99.1425,94.8927,0.000986294,0.0623121,20.9148,104.103,0.392475,0.0,0.0
168,41.75,32.7113,33.4702,161.803,99.1286,95.7193,0.000977199,0.0620023,20.9149,104.033,0.313524,0.0,0.0
171,42.5,33.2734,33.5763,150.552,99.1318,97.9872,0.00095929,0.0616767,20.9154,103.953,0.104037,0.0,1.0
174,43.25,32.5757,34.132,150.007,99.131,99.1091,0.000935081,0.0613518,20.9158,104.023,0.0019765,0.0,1.0
177,44,33.0602,33.5534,150.614,99.1138,99.2275,0.00091,0.061038,20.9163,103.832,-0.0102675,0.0,1.0
180,44.75,33.263,33.5913,149.571,99.1134,98.9459,0.000888547,0.0607807,20.9171,103.682,0.0151506,0.0,1.0
183,45.5,33.5611,34.0602,143.572,99.1085,98.5119,0.000871141,0.0606111,20.9176,103.682,0.0540856,0.0,1.0
186,46.25,33.4405,33.6697,144.917,99.1142,98.144,0.000868363,0.0605386,20.918,103.632,0.0881245,0.0,1.0
189,47,34.3333,33.9289,145.106,99.1101,97.8508,0.000882305,0.0606141,20.9183,103.522,0.114558,0.0,1.0
192,47.75,34.1171,34.502,143.057,99.1015,97.1642,0.000912547,0.0607238,20.9185,103.362,0.176863,0.0,1.0
195,48.5,34.5146,34.5895,141.447,99.0876,97.5295,0.000934594,0.0611888,20.9187,103.262,0.141983,0.0,1.0
198,49.25,34.7157,34.8594,137.812,99.1171,97.1789,0.00104979,0.0625116,20.9192,103.182,0.176916,0.0,1.0
201,50,35.1487,35.038,143.267,99.097,97.3533,0.00116648,0.0648776,20.9198,103.052,0.159033,0.0,0.0
204,50.75,35.9296,35.276,136.249,99.0966,96.6987,0.00130749,0.0714792,20.9202,102.912,0.21944,0.0,0.0
207,51.5,36.0167,35.8836,139.614,99.0872,97.0208,0.00149025,0.0783707,20.9203,102.742,0.188793,0.0,0.0
210,52.25,36.5107,36.2985,141.49,99.0831,96.6848,0.00162349,0.0921889,20.9203,102.752,0.219498,0.0,0.0
213,53,36.9817,36.6949,143.923,99.0855,97.229,0.0017882,0.110564,20.9177,102.601,0.169447,0.0,0.0
216,53.75,37.162,36.7752,134.963,99.0917,96.6628,0.00193323,0.131745,20.9114,102.441,0.222317,0.0,0.0
219,54.5,38.0628,37.4628,135.388,99.0782,97.2406,0.00206275,0.154607,20.9012,102.331,0.167706,0.0,0.0
222,55.25,38.5546,38.0683,142.536,99.0806,96.9116,0.00217965,0.181277,20.8805,102.241,0.198294,0.0,0.0
225,56,39.0118,38.4361,131.784,99.0773,96.6049,0.00230765,0.206833,20.8543,102.081,0.226385,0.0,0.0
228,56.75,39.2304,39.4153,134.776,99.0757,97.3883,0.0024435,0.230931,20.8261,101.921,0.153888,0.0,0.0
231,57.5,40.1582,39.7902,135.801,99.0519,96.6028,0.00258901,0.256332,20.7979,101.791,0.224287,0.0,0.0
234,58.25,40.1562,40.0773,138.487,99.0568,96.5454,0.00274357,0.277912,20.7667,101.721,0.23006,0.0,0.0
237,59,40.7773,40.6775,134.006,99.0683,96.8355,0.00288529,0.298882,20.7401,101.59,0.204211,0.0,0.0
240,59.75,41.1883,41.4279,133.598,99.0626,96.4426,0.00303828,0.320541,20.7144,101.42,0.24012,0.0,0.0
243,60.5,42.0012,41.4568,133.245,99.0368,97.2285,0.00316862,0.339048,20.6924,101.23,0.165077,0.0,0.0
246,61.25,42.4003,42.0627,134.74,99.0396,96.408,0.00327165,0.360332,20.6708,101.13,0.241253,0.0,0.0
249,62,43.5952,41.9841,130.375,99.0503,95.9861,0.00337722,0.37841,20.6464,101.06,0.281507,0.0,0.0
252,62.75,43.1032,43.7242,134.409,99.0433,96.4849,0.00347681,0.395971,20.624,100.89,0.234448,0.0,0.0
255,63.5,44.1969,43.8643,137.537,99.0351,95.7603,0.00357627,0.414487,20.5996,100.69,0.301238,0.0,0.0
258,64.25,45.0725,44.752,131.205,99.0278,95.8985,0.00367822,0.429988,20.5718,100.56,0.287654,0.0,0.0
261,65,45.0751,45.5067,127.918,99.0507,96.1964,0.00378127,0.444713,20.5466,100.439,0.261938,0.0,0.0
264,65.75,46.1335,45.4499,125.54,99.0355,95.6558,0.00385639,0.461641,20.5262,100.319,0.311058,0.0,0.0
267,66.5,46.2184,46.5549,130.323,99.0208,95.9343,0.00392911,0.473982,20.5064,100.059,0.283676,0.0,0.0
270,67.25,47.0709,47.1909,128.063,98.9978,95.987,0.00398843,0.488913,20.4874,99.929,0.276682,0.0,0.0
273,68,47.7429,47.5015,132.09,99.0175,95.445,0.0040443,0.503367,20.4691,99.8289,0.329184,0.0,0.0
276,68.75,47.8237,48.6881,130.257,99.004,94.6729,0.00410205,0.519037,20.4494,99.7088,0.400725,0.0,0.0
279,69.5,48.8802,49.1272,129.007,99.0011,95.214,0.00417652,0.533769,20.4298,99.4886,0.349412,0.0,0.0
282,70.25,49.7349,49.7527,125.777,98.9855,95.6791,0.0042472,0.547534,20.4132,99.2684,0.30435,0.0,0.0
285,71,50.4403,49.6879,131.168,98.9913,95.5526,0.00430572,0.557569,20.3988,99.1783,0.316724,0.0,0.0
288,71.75,50.6239,50.5722,125.82,98.9847,95.0801,0.00434838,0.574122,20.3843,99.0182,0.360532,0.0,0.0
291,72.5,51.6674,51.561,131.243,98.9769,94.2575,0.00438488,0.586189,20.3695,98.838,0.437673,0.0,0.0
294,73.25,52.285,51.8095,124.529,98.9696,92.8242,0.00442478,0.602614,20.357,98.6178,0.574271,0.0,0.0
297,74,52.8329,52.8742,127.382,98.9474,94.5736,0.00447658,0.616709,20.3422,98.4777,0.40501,0.0,0.0
300,74.75,53.533,53.3397,125.925,98.9679,94.5891,0.0045666,0.630612,20.3279,98.3376,0.405392,0.0,0.0
303,75.5,54.0589,54.0162,127.631,98.9487,93.5959,0.00465552,0.645675,20.3114,98.1374,0.498212,0.0,0.0
306,76.25,54.5934,55.1358,127.395,98.9409,93.1572,0.00476018,0.660192,20.29,97.9472,0.539598,0.0,0.0
309,77,55.6332,55.645,122.26,98.9442,93.2988,0.00487981,0.673984,20.2686,97.7471,0.526285,0.0,0.0
312,77.75,55.7844,56.7301,123.297,98.9458,93.3839,0.00498729,0.686947,20.2457,97.637,0.518269,0.0,0.0
315,78.5,56.5324,57.1774,117.356,98.9356,93.0687,0.00508362,0.701765,20.2269,97.4468,0.547635,0.0,0.0
318,79.25,57.0527,57.7888,118.616,98.9163,93.1425,0.00516981,0.715112,20.2081,97.1565,0.538785,0.0,0.0
321,80,58.5405,58.7921,120.767,98.9187,92.2395,0.00527577,0.729195,20.1926,96.9664,0.626277,0.0,0.0
324,80.75,58.776,59.3232,126.804,98.9179,93.485,0.0053714,0.744437,20.1781,96.8363,0.506058,0.0,0.0
327,81.5,59.9017,59.5384,123.495,98.9126,92.8575,0.0055045,0.757668,20.1626,96.596,0.565905,0.0,0.0
330,82.25,60.4062,60.5708,114.826,98.895,93.1904,0.00562295,0.773092,20.1493,96.3458,0.532245,0.0,0.0
333,83,61.5099,61.482,125.844,98.9003,93.0622,0.00574593,0.788303,20.1317,96.1556,0.545066,0.0,0.0
336,83.75,61.398,62.6573,120.183,98.9118,93.1628,0.00586824,0.80333,20.1128,96.0155,0.536425,0.0,0.0
339,84.5,62.9299,63.1591,123.32,98.886,93.4241,0.00597523,0.818125,20.0935,95.7253,0.508999,0.0,0.0
342,85.25,63.1571,64.1279,118.612,98.8765,92.6645,0.00606886,0.836876,20.0746,95.485,0.58128,0.0,0.0
345,86,64.414,64.9969,118.465,98.8712,91.7991,0.00615088,0.854284,20.0546,95.2148,0.664852,0.0,0.0
348,86.75,64.9287,65.6921,116.742,98.8802,92.0517,0.00621737,0.87337,20.0399,95.1147,0.64105,0.0,0.0
351,87.5,65.4432,66.7481,120.231,98.8692,92.5785,0.0062773,0.890379,20.0223,94.8545,0.588923,0.0,0.0
354,88.25,66.5085,67.4183,114.787,98.8622,91.0106,0.00632281,0.908072,20.0024,94.6043,0.741318,0.0,0.0
357,89,67.0038,68.4359,117.598,98.8458,92.113,0.00636002,0.926616,19.9809,94.344,0.631966,0.0,0.0
360,89.75,67.7413,69.3903,116.433,98.8708,91.663,0.00640475,0.943686,19.9584,94.2039,0.6781,0.0,0.0
363,90.5,68.6926,70.0729,121.798,98.8536,91.5909,0.00645572,0.95952,19.9307,93.9637,0.68359,0.0,0.0
366,91.25,69.3208,71.1131,127.279,98.863,92.5293,0.00652016,0.974267,19.9079,93.6734,0.593131,0.0,0.0
369,92,70.4762,71.7829,120.512,98.8356,91.369,0.00657385,0.989345,19.8869,93.4032,0.703693,0.0,0.0
372,92.75,70.7684,72.3318,111.753,98.852,91.4622,0.00662448,1.00218,19.868,93.223,0.696038,0.0,0.0
375,93.5,71.7837,73.3117,113.667,98.8352,91.6289,0.00666138,1.02078,19.8528,92.9628,0.678203,0.0,0.0
378,94.25,72.6644,74.5458,116.349,98.8286,90.336,0.00671195,1.03434,19.8417,92.7026,0.804914,0.0,0.0
381,95,73.6109,75.6316,114.542,98.811,90.8849,0.00678042,1.05232,19.8272,92.4023,0.749052,0.0,0.0
384,95.75,74.5977,76.045,115.759,98.8224,90.428,0.00688438,1.07062,19.8104,92.2021,0.79524,0.0,0.0
387,96.5,75.2259,77.3786,118.43,98.8224,89.627,0.00702287,1.08693,19.7905,91.9419,0.87495,0.0,0.0
390,97.25,76.2521,78.1688,121.619,98.8147,89.5708,0.00718496,1.10286,19.7687,91.7017,0.879858,0.0,0.0
393,98,76.8019,79.1176,108.817,98.8089,89.4672,0.00736195,1.11817,19.7456,91.3714,0.889709,0.0,0.0
396,98.75,77.5654,79.8123,110.848,98.7954,88.3777,0.00758804,1.13426,19.7234,91.0911,0.998245,0.0,0.0
399,99.5,78.1414,80.7845,111.699,98.8028,87.15,0.00781458,1.15174,19.7019,90.7608,1.12423,0.0,0.0
402,100.25,79.1033,81.562,113.057,98.8048,85.2935,0.00794882,1.16525,19.6899,90.5607,1.31731,0.0,0.0
405,101,79.6413,82.1999,113.855,98.7905,85.7724,0.00817734,1.18674,19.6736,90.2604,1.26585,0.0,0.0
408,101.75,80.2185,82.9946,110.223,98.7757,85.566,0.00837523,1.2132,19.6573,89.86,1.2861,0.0,0.0
411,102.5,80.6716,84.1804,107.577,98.7802,88.3034,0.00856917,1.23543,19.634,89.5598,1.0044,0.0,0.0
414,103.25,81.3147,84.9134,121.254,98.7778,88.8272,0.00872991,1.25665,19.6126,89.2395,0.951196,0.0,0.0
417,104,82.3529,85.3077,120.879,98.7696,89.098,0.00886418,1.27658,19.5894,88.9092,0.923188,0.0,0.0
420,104.75,82.5907,86.2932,114.001,98.7528,87.3525,0.00897718,1.29602,19.5593,88.5589,1.0989,0.0,0.0
423,105.5,83.5633,86.6336,118.396,98.7544,85.4559,0.00908904,1.31349,19.5311,88.2886,1.2957,0.0,0.0
426,106.25,84.2013,87.378,115.169,98.7475,87.2195,0.00920679,1.32967,19.5053,87.9383,1.11207,0.0,0.0
429,107,84.7523,88.3378,111.943,98.7413,87.1197,0.00930806,1.34799,19.4821,87.6381,1.12177,0.0,0.0
432,107.75,85.5156,89.1857,113.882,98.7417,86.4435,0.00952783,1.36412,19.4621,87.2677,1.19161,0.0,0.0
435,108.5,86.0948,90.0125,112.962,98.7319,85.0327,0.00975231,1.39066,19.4463,86.9574,1.33813,0.0,0.0
438,109.25,86.9144,90.7464,119.63,98.7286,86.1252,0.0100258,1.42193,19.4277,86.6872,1.22346,0.0,0.0
441,110,87.1165,91.1108,114.143,98.7221,85.2715,0.0104241,1.45494,19.4071,86.3269,1.31211,0.0,0.0
444,110.75,87.8905,91.7916,115.723,98.7139,86.0583,0.0108321,1.48782,19.3823,85.9966,1.22909,0.0,0.0
447,111.5,88.5248,92.8606,112.873,98.7208,86.1058,0.01123,1.5215,19.3526,85.6463,1.22478,0.0,0.0
450,112.25,89.1148,93.9904,107.572,98.7241,86.1226,0.0116063,1.55105,19.3102,85.3961,1.22333,0.0,0.0
453,113,89.7007,94.5125,108.288,98.7343,85.0646,0.0119804,1.57472,19.2695,84.9957,1.33499,0.0,0.0
456,113.75,90.4104,95.1411,108.984,98.7081,85.3725,0.0122957,1.60131,19.2356,84.6854,1.30024,0.0,0.0
459,114.5,90.8756,95.4484,109.772,98.7114,85.8501,0.0126533,1.62069,19.2052,84.3151,1.25056,0.0,0.0
462,115.25,91.5988,96.4791,108.282,98.7114,83.3641,0.0130061,1.64421,19.1805,84.0849,1.51381,0.0,0.0
465,116,91.9677,97.3529,114.786,98.7028,84.2891,0.0133274,1.66365,19.1531,83.7346,1.41418,0.0,0.0
468,116.75,92.6218,97.8727,117.396,98.6999,88.6873,0.0136485,1.67879,19.1331,83.4343,0.958254,0.0,0.0
471,117.5,92.9628,98.5612,111.596,98.6905,87.0977,0.0138825,1.69177,19.109,83.074,1.11942,0.0,0.0
474,118.25,93.4565,99.1174,107.996,98.6983,89.8217,0.0142025,1.70205,19.0831,82.8338,0.844243,0.0,0.0
477,119,94.113,99.7261,110.72,98.6897,89.7254,0.0145367,1.71456,19.0606,82.5335,0.853071,0.0,0.0
480,119.75,94.9212,100.341,112.82,98.6917,87.6068,0.0148936,1.72711,19.041,82.2633,1.06732,0.0,0.0
483,120.5,95.8142,100.996,112.948,98.6913,86.9651,0.0152737,1.73772,19.0249,81.9029,1.13314,0.0,0.0
486,121.25,96.0339,101.915,113.782,98.6729,86.1732,0.0156599,1.74913,19.0131,81.6928,1.21342,0.0,0.0
489,122,96.5727,102.191,121.458,98.6823,86.1831,0.0161281,1.75806,18.9956,81.4025,1.21325,0.0,0.0
492,122.75,96.978,102.777,116.803,98.6729,85.8419,0.0166995,1.76483,18.9794,81.1823,1.24792,0.0,0.0
495,123.5,97.1624,103.376,115.182,98.6688,85.4999,0.0172105,1.76891,18.966,80.842,1.28331,0.0,0.0
498,124.25,97.2671,104.024,114.705,98.6651,86.4754,0.0177446,1.77212,18.9537,80.6418,1.18134,0.0,0.0
501,125,97.6024,104.285,114.347,98.67,87.9014,0.0182246,1.77456,18.9441,80.3316,1.03528,0.0,0.0
504,125.75,98.0777,104.552,117.422,98.6688,86.8714,0.0184961,1.77455,18.9367,80.1214,1.14075,0.0,0.0
507,126.5,98.3271,104.542,116.83,98.6651,86.8218,0.0186605,1.77036,18.9313,79.8511,1.14554,0.0,0.0
510,127.25,98.5871,105.526,120.315,98.6602,88.5798,0.0185092,1.76553,18.9274,79.6509,0.965513,0.0,0.0
513,128,98.5963,105.564,112.293,98.6577,88.9732,0.018245,1.75076,18.9246,79.3807,0.925593,0.0,0.0
516,128.75,98.9488,105.704,124.466,98.6516,88.629,0.0177892,1.73499,18.9229,79.1205,0.959755,0.0,0.0
519,129.5,98.8351,106.22,113.956,98.659,89.1036,0.0172717,1.71495,18.9272,78.8802,0.912583,0.0,0.0
522,130.25,99.09,106.551,121.442,98.6536,87.6479,0.0167064,1.69113,18.9366,78.6701,1.05966,0.0,0.0
525,131,99.2097,107.055,113.569,98.6524,86.0915,0.0162248,1.66724,18.9502,78.4499,1.22005,0.0,0.0
528,131.75,99.6136,106.999,121.55,98.6516,84.3625,0.0158344,1.64352,18.9713,78.2397,1.40173,0.0,0.0
531,132.5,99.3676,107.4,126.75,98.6421,84.0965,0.0155478,1.62022,18.9948,78.0095,1.42916,0.0,0.0
534,133.25,99.4776,107.362,122.633,98.6434,85.107,0.015339,1.59397,19.0179,77.8193,1.32227,0.0,0.0
537,134,99.3749,107.136,125.642,98.6409,87.7964,0.0152207,1.57483,19.0456,77.6392,1.04334,0.0,0.0
540,134.75,99.5671,107.282,126.47,98.6454,85.7776,0.0151352,1.54967,19.0657,77.449,1.25214,0.0,0.0
543,135.5,99.3727,106.793,123.129,98.6376,86.9466,0.0150741,1.52745,19.0875,77.3289,1.13018,0.0,0.0
546,136.25,98.6757,106.962,130.358,98.6327,88.4131,0.0149871,1.50461,19.1063,77.1387,0.979893,0.0,0.0
549,137,98.4327,107.05,128.302,98.6331,92.4075,0.0148757,1.48134,19.1302,77.0586,0.584073,0.0,0.0
552,137.75,97.8321,107.187,132.715,98.6331,94.2156,0.0147432,1.45779,19.1552,76.9585,0.410483,0.0,0.0
555,138.5,97.0358,107.289,130.375,98.6339,94.9826,0.0146241,1.43417,19.1817,76.8284,0.33793,0.0,0.0
558,139.25,96.9517,106.134,136.651,98.6184,96.2867,0.0145449,1.40367,19.2098,76.6983,0.214351,0.0,0.0
561,140,96.1631,105.87,137.26,98.6241,97.2631,0.0144945,1.38144,19.2343,76.7484,0.12449,0.0,0.0
564,140.75,95.7304,105.017,139.472,98.6319,98.4368,0.0144954,1.33749,19.2589,76.6883,0.0177398,0.0,0.0
567,141.5,95.0365,104.318,147.366,98.6294,98.7771,0.0145604,1.29663,19.2867,76.6082,-0.0133991,0.0,0.0
570,142.25,95.0328,103.779,138.591,98.6053,98.9589,0.0146369,1.25177,19.313,76.4981,-0.0320682,0.0,0.0
573,143,93.9578,103.128,140.645,98.6364,99.1752,0.0146835,1.20061,19.3426,76.5582,-0.0488026,0.0,0.0
576,143.75,93,102.594,142.311,98.6258,99.4563,0.0146805,1.15545,19.3801,76.5282,-0.0751277,0.0,0.0
579,144.5,92.2055,102.249,143.244,98.6188,99.4779,0.0145997,1.08929,19.4255,76.4481,-0.0777052,0.0,0.0
582,145.25,90.9944,101.225,146.381,98.6098,99.4309,0.0142919,1.01983,19.4777,76.388,-0.0742846,0.0,0.0
585,146,90.983,100.661,145.906,98.6176,99.5008,0.0138721,0.948305,19.5401,76.4381,-0.0798776,0.0,0.0
588,146.75,89.6556,99.6088,143.841,98.6307,99.4274,0.013256,0.875902,19.6088,76.4181,-0.0720741,0.0,0.0
591,147.5,88.5475,99.2268,142.592,98.6217,99.4503,0.012536,0.795941,19.6808,76.338,-0.0749554,0.0,0.0
594,148.25,88.4553,98.2327,143.897,98.6135,99.4628,0.0117738,0.728406,19.7751,76.2879,-0.0768278,0.0,0.0
597,149,87.7132,97.4126,145.237,98.6278,99.3916,0.0108907,0.663364,19.8587,76.318,-0.0691055,0.0,0.0
600,149.75,86.9911,96.4255,147.687,98.6249,99.62,0.00999683,0.600791,19.9452,76.348,-0.0899319,0.0,0.0
603,150.5,86.0002,96.6192,147.165,98.6249,99.4322,0.00915622,0.543044,20.0308,76.2779,-0.0730237,0.0,0.0
606,151.25,85.8864,95.4557,144.245,98.6085,99.636,0.00836505,0.491251,20.1118,76.2279,-0.0928578,0.0,0.0
609,152,85.0724,94.5506,152.019,98.6167,99.37,0.00765146,0.441975,20.1859,76.2379,-0.0681644,0.0,0.0
612,152.75,83.9611,94.0295,147.752,98.6335,99.5561,0.00681477,0.387281,20.2922,76.2879,-0.0834017,0.0,0.0
615,153.5,83.0768,93.855,143.761,98.6278,99.4153,0.00645132,0.363342,20.3441,76.2279,-0.0712458,0.0,0.0
618,154.25,82.8434,92.6579,148.831,98.6114,99.5483,0.00600616,0.332143,20.4039,76.1478,-0.084712,0.0,0.0
621,155,82.0611,91.9338,149.171,98.6258,99.3968,0.00563841,0.306621,20.4615,76.1378,-0.0697588,0.0,0.0
624,155.75,81.897,91.3116,146.967,98.6323,99.5406,0.00537166,0.283266,20.5035,76.2279,-0.0821142,0.0,0.0
627,156.5,80.9819,91.0621,145.455,98.6352,99.4857,0.00517947,0.264273,20.5448,76.1879,-0.0769167,0.0,0.0
630,157.25,80.605,89.8585,148.509,98.6245,99.4157,0.00504853,0.241325,20.5888,76.0878,-0.0715822,0.0,0.0
633,158,80.0094,89.6063,148.793,98.6217,99.5095,0.005024,0.231514,20.6073,76.0878,-0.0802833,0.0,0.0
636,158.75,79.0224,88.995,148.531,98.645,99.5177,0.00501617,0.218497,20.6376,76.1578,-0.0789004,0.0,0.0
639,159.5,78.4688,88.4079,150.439,98.6458,99.5082,0.00507727,0.207552,20.6645,76.1478,-0.0779707,0.0,0.0
642,160.25,77.9984,88.0908,147.492,98.6331,99.4684,0.0051725,0.198311,20.6878,76.0477,-0.0755472,0.0,0.0
645,161,77.4007,87.3392,145.606,98.6421,99.4797,0.00526355,0.190477,20.7076,76.0377,-0.0757395,0.0,0.0
648,161.75,77.2971,86.6301,152.341,98.6454,99.4797,0.00539145,0.184298,20.7243,76.0878,-0.0754417,0.0,0.0
651,162.5,76.9777,85.7947,145.985,98.6573,99.4119,0.0054847,0.178383,20.7374,76.0778,-0.0682548,0.0,0.0
654,163.25,76.0341,85.5708,148.779,98.6655,99.4365,0.00561247,0.174071,20.7469,75.9877,-0.0697287,0.0,0.0
657,164,75.1904,85.0946,144.794,98.6594,99.5613,0.00570562,0.169718,20.7564,75.9576,-0.0815237,0.0,0.0
660,164.75,74.8922,84.3114,149.998,98.6737,99.4356,0.0058352,0.166029,20.7638,76.0577,-0.068907,0.0,0.0
663,165.5,74.5058,83.3522,150.211,98.6819,99.5418,0.00594641,0.162256,20.7699,76.0177,-0.0777289,0.0,0.0
666,166.25,73.7098,83.4287,147.619,98.6811,99.6062,0.00605613,0.159015,20.7762,75.9376,-0.0835909,0.0,0.0
669,167,73.6841,82.5591,147.96,98.6803,99.4563,0.00617791,0.156443,20.7815,75.9376,-0.0701786,0.0,0.0
672,167.75,72.8954,82.2468,150.503,98.6913,99.5207,0.00627876,0.153743,20.7866,75.9276,-0.0749678,0.0,0.0
675,168.5,72.6458,81.7755,151.515,98.7065,99.6032,0.00637294,0.151433,20.7916,76.0277,-0.0810134,0.0,0.0
678,169.25,72.0119,81.0283,152.896,98.7044,99.5047,0.00645979,0.149604,20.7957,75.8976,-0.072339,0.0,0.0
681,170,71.8253,80.6303,144.062,98.6991,99.56,0.0065231,0.147764,20.7988,75.8876,-0.0777984,0.0,0.0
684,170.75,70.9146,80.2049,151.064,98.7106,99.5652,0.00660748,0.146204,20.8017,75.8876,-0.0772231,0.0,0.0
687,171.5,70.8818,79.5546,149.198,98.7274,99.541,0.00670603,0.144694,20.8041,75.9777,-0.0735228,0.0,0.0
690,172.25,70.2253,79.2956,144.718,98.727,99.4736,0.00683841,0.143256,20.8065,75.9076,-0.0674946,0.0,0.0
693,173,69.8806,79.0593,148.124,98.7229,99.4935,0.00697554,0.141972,20.8086,75.8776,-0.0696544,0.0,0.0
696,173.75,69.8937,78.3523,148.17,98.736,99.5142,0.00711238,0.140857,20.8108,75.9176,-0.0703314,0.0,0.0
699,174.5,69.3725,77.7872,152.635,98.7647,99.5276,0.00725964,0.13981,20.8128,75.9576,-0.0689344,0.0,0.0
702,175.25,68.7004,77.6125,154.512,98.761,99.5,0.00733491,0.139154,20.814,75.9677,-0.0667802,0.0,0.0
705,176,68.6424,76.7348,148.215,98.7548,99.6157,0.00745295,0.138396,20.8153,75.8676,-0.0777526,0.0,0.0
708,176.75,68.0875,76.7637,148.365,98.7602,99.6692,0.00753158,0.13757,20.8163,75.8475,-0.082083,0.0,0.0
711,177.5,67.5583,75.9972,150.514,98.7753,99.6248,0.00757621,0.136883,20.8176,75.9276,-0.0767088,0.0,0.0
714,178.25,67.5963,75.4091,150.949,98.7827,99.5531,0.00758568,0.136236,20.8186,75.8976,-0.069592,0.0,0.0
717,179,67.4641,75.0996,148.995,98.7876,99.547,0.00757128,0.13572,20.8193,75.8075,-0.0686019,0.0,0.0
720,179.75,66.3834,74.7734,148.577,98.8089,99.5172,0.00754119,0.135333,20.8199,75.7775,-0.0639881,0.0,0.0
723,180.5,66.1821,74.4725,149.206,98.8126,99.601,0.0074937,0.135063,20.8203,75.8475,-0.071192,0.0,0.0
726,181.25,65.8268,73.8815,150.985,98.8278,99.5349,0.00746176,0.13493,20.8208,75.8275,-0.0638725,0.0,0.0
729,182,65.0014,73.2988,149.14,98.8229,99.6412,0.00746129,0.134937,20.8215,75.7575,-0.0738743,0.0,0.0
732,182.75,64.8981,72.9756,148.161,98.8339,99.6066,0.00749207,0.135086,20.8221,75.7274,-0.0697652,0.0,0.0
735,183.5,64.8258,72.735,150.57,98.8466,99.5587,0.00754892,0.135368,20.8225,75.8075,-0.0643016,0.0,0.0
738,184.25,64.3989,72.3922,150.6,98.8585,99.6943,0.00764922,0.135691,20.8228,75.7975,-0.0754174,0.0,0.0
741,185,64.2529,72.0367,153.966,98.8757,99.7318,0.00772359,0.135891,20.823,75.7375,-0.0772328,0.0,0.0
744,185.75,64.2463,71.1839,153.903,98.8647,99.6571,0.00780614,0.136144,20.8231,75.6974,-0.0715224,0.0,0.0
747,186.5,63.4369,71.4125,149.924,98.8811,99.544,0.00786056,0.136328,20.8233,75.7475,-0.0598615,0.0,0.0
750,187.25,63.1216,71.0331,145.275,98.9151,99.633,0.00789212,0.136292,20.8234,75.7475,-0.064783,0.0,0.0
753,188,63.0815,70.4534,149.164,98.9069,99.6036,0.00790126,0.136188,20.8227,75.7174,-0.0628841,0.0,0.0
756,188.75,62.6318,70.4034,147.364,98.9032,99.7608,0.00791338,0.135923,20.8221,75.6574,-0.0773454,0.0,0.0
759,189.5,61.9219,70.1391,146.863,98.9187,99.7746,0.00791832,0.135739,20.8219,75.6674,-0.0771752,0.0,0.0
762,190.25,62.3096,69.2222,151.99,98.9413,99.6973,0.007946,0.135526,20.8217,75.7274,-0.0681908,0.0,0.0
765,191,61.9495,69.0358,147.863,98.963,99.7465,0.00797158,0.135265,20.8215,75.7174,-0.0706478,0.0,0.0
768,191.75,61.6448,68.5438,148.172,98.9483,99.699,0.00799947,0.134975,20.822,75.6174,-0.0677157,0.0,0.0
771,192.5,61.2001,68.3508,150.028,98.9646,99.5798,0.00801798,0.13459,20.8223,75.6073,-0.0555166,0.0,0.0
774,193.25,60.7331,68.2001,149.606,98.9892,99.8014,0.0080289,0.134121,20.8228,75.6874,-0.0731976,0.0,0.0
777,194,60.6581,67.619,149.279,99.0077,99.75,0.00804185,0.133617,20.8236,75.6674,-0.0669152,0.0,0.0
780,194.75,60.1549,67.6011,151.378,99.0167,99.7547,0.00806169,0.133107,20.8242,75.5973,-0.0665263,0.0,0.0
783,195.5,60.3839,67.0094,148.692,99.0458,99.7189,0.00809631,0.132719,20.8246,75.5873,-0.0606749,0.0,0.0
786,196.25,59.8443,66.6558,147.138,99.0642,99.8061,0.00813955,0.132463,20.8251,75.6474,-0.0668404,0.0,0.0
789,197,59.2857,66.8983,149.037,99.0622,99.7901,0.00817874,0.132262,20.8259,75.6374,-0.0655914,0.0,0.0
792,197.75,59.3031,66.355,153.535,99.0724,99.6934,0.00821116,0.132109,20.8264,75.5673,-0.055977,0.0,0.0
795,198.5,59.2241,65.6964,148.92,99.0704,99.7284,0.00823644,0.131976,20.8269,75.5273,-0.0593047,0.0,0.0
798,199.25,59.2907,65.5969,153.135,99.1097,99.8294,0.00823837,0.131879,20.8272,75.5873,-0.0648206,0.0,0.0
801,200,58.6739,65.1856,146.434,99.1154,99.8152,0.00823592,0.131725,20.8274,75.5873,-0.0630228,0.0,0.0
804,200.75,58.5819,64.9748,146.255,99.1261,99.8519,0.00823317,0.131553,20.8276,75.4972,-0.0653542,0.0,0.0
807,201.5,58.3458,64.6996,150.064,99.1396,99.8592,0.00823257,0.131448,20.8276,75.5073,-0.0647905,0.0,0.0
810,202.25,57.7582,64.3601,150.265,99.1691,99.7211,0.00824345,0.131327,20.8277,75.5373,-0.0497196,0.0,0.0
813,203,57.6553,64.3206,150.173,99.1839,99.9357,0.00826647,0.131209,20.8278,75.5673,-0.0676469,0.0,0.0
816,203.75,57.5362,63.7259,148.206,99.1986,100.048,0.00830061,0.13111,20.8278,75.5173,-0.0764121,0.0,0.0
819,204.5,57.6141,63.3895,154.002,99.2031,99.9504,0.0083492,0.130933,20.8279,75.4472,-0.0672235,0.0,0.0
822,205.25,56.8551,63.3771,150.917,99.2236,99.9961,0.00842516,0.130843,20.8279,75.5173,-0.0694752,0.0,0.0
825,206,56.271,62.4526,152.403,99.2503,99.9758,0.00852464,0.130921,20.8279,75.5073,-0.065252,0.0,0.0
828,206.75,56.2557,62.5784,147.67,99.256,100.056,0.00860461,0.13111,20.8279,75.5073,-0.0718895,0.0,0.0
831,207.5,56.3354,61.9939,146.702,99.2699,99.9672,0.00867566,0.131397,20.828,75.3972,-0.0627029,0.0,0.0
834,208.25,55.5448,61.9417,150.604,99.2958,100.052,0.0087201,0.13163,20.8281,75.4172,-0.0679552,0.0,0.0
837,209,55.3137,61.6461,150.628,99.3126,100.022,0.00873703,0.131734,20.8283,75.4872,-0.0637326,0.0,0.0
840,209.75,55.752,61.0107,153.422,99.338,100.06,0.00874279,0.13181,20.8285,75.4672,-0.0648825,0.0,0.0
843,210.5,54.8783,61.0048,146.349,99.3371,100.063,0.00873477,0.131887,20.8286,75.3871,-0.065189,0.0,0.0
846,211.25,54.9424,60.7908,152.582,99.3543,100.184,0.00870807,0.131919,20.8282,75.3671,-0.0744552,0.0,0.0
849,212,54.6104,59.9414,148.963,99.3941,100.09,0.00867843,0.131903,20.828,75.4372,-0.0624889,0.0,0.0
852,212.75,54.2867,59.9581,150.236,99.4084,100.137,0.00863945,0.131829,20.8278,75.4272,-0.065408,0.0,0.0
855,213.5,54.7832,60.05,146.902,99.4068,100.149,0.00860736,0.131669,20.8277,75.3371,-0.0666764,0.0,0.0
858,214.25,54.4851,59.8937,152.666,99.4314,100.226,0.00859074,0.131427,20.8276,75.3371,-0.0712948,0.0,0.0
861,215,54.4068,59.8127,148.592,99.4662,100.205,0.00859021,0.131236,20.8275,75.4072,-0.0662664,0.0,0.0
864,215.75,53.6186,59.3119,147.408,99.4761,100.267,0.00862472,0.131059,20.8279,75.4072,-0.0709379,0.0,0.0
867,216.5,53.6773,58.7737,143.723,99.4953,100.2,0.00866664,0.130877,20.8284,75.3171,-0.06326,0.0,0.0
870,217.25,54.4408,59.3215,144.036,99.5092,100.246,0.00870433,0.130661,20.8287,75.3071,-0.0660965,0.0,0.0
873,218,53.5512,58.8679,150.891,99.5371,100.246,0.00875019,0.130503,20.829,75.3972,-0.0635885,0.0,0.0
876,218.75,53.6883,58.7136,148.384,99.5486,100.275,0.00878363,0.130451,20.8292,75.3871,-0.065103,0.0,0.0
879,219.5,53.0326,58.0727,150.139,99.5674,100.258,0.00885215,0.130413,20.8293,75.277,-0.0619023,0.0,0.0
882,220.25,52.5618,57.6317,149.292,99.5674,100.195,0.00891162,0.13049,20.8294,75.267,-0.0562666,0.0,0.0
885,221,52.9848,57.6513,150.765,99.6023,100.231,0.00897122,0.13062,20.8295,75.3571,-0.0563376,0.0,0.0
888,221.75,52.4696,57.2255,148.727,99.633,100.325,0.00902204,0.130769,20.8295,75.3371,-0.0620216,0.0,0.0
891,222.5,52.4298,57.439,150.651,99.6355,100.203,0.00904877,0.130918,20.8296,75.2971,-0.0508816,0.0,0.0
894,223.25,52.5766,57.2218,149.314,99.6437,100.321,0.00906384,0.131026,20.8296,75.237,-0.0607173,0.0,0.0
897,224,52.2454,57.202,152,99.6527,100.306,0.00904907,0.131075,20.8296,75.3071,-0.058557,0.0,0.0
900,224.75,52.7153,56.7493,149.159,99.6834,100.466,0.00901379,0.131099,20.8296,75.3271,-0.0700144,0.0,0.0
903,225.5,51.9442,56.6293,150.223,99.6957,100.393,0.00897763,0.130948,20.8296,75.2971,-0.0624765,0.0,0.0
906,226.25,52.3357,56.3175,148.633,99.7051,100.391,0.00889981,0.130769,20.8296,75.227,-0.0614372,0.0,0.0
909,227,51.3155,56.1289,148.304,99.7109,100.427,0.00881217,0.130519,20.8296,75.247,-0.0641193,0.0,0.0
912,227.75,51.5702,56.1119,148.521,99.7375,100.466,0.00873511,0.130295,20.8296,75.277,-0.0651546,0.0,0.0
915,228.5,51.6413,55.6452,147.938,99.7551,100.397,0.00866424,0.130092,20.8297,75.267,-0.0574472,0.0,0.0
918,229.25,51.427,56.3226,148.546,99.7777,100.437,0.00862803,0.129879,20.8303,75.177,-0.0589682,0.0,0.0
921,230,51.2204,56.0047,151.112,99.7863,100.481,0.00860821,0.129597,20.8307,75.1669,-0.0621614,0.0,0.0
924,230.75,51.3088,55.583,146.93,99.8006,100.4,0.00862682,0.129422,20.8311,75.247,-0.0536331,0.0,0.0
927,231.5,51.2314,55.2937,152.676,99.8141,100.45,0.0086507,0.129306,20.8313,75.237,-0.0568878,0.0,0.0
930,232.25,50.9527,54.9552,148.805,99.8174,100.453,0.00867249,0.129222,20.8315,75.1169,-0.0568249,0.0,0.0
933,233,50.7488,54.9965,148.634,99.8371,100.553,0.00868635,0.12916,20.8316,75.1069,-0.0640284,0.0,0.0
936,233.75,50.9361,54.3418,150.028,99.8625,100.536,0.00869297,0.129145,20.8318,75.187,-0.060248,0.0,0.0
939,234.5,50.2191,54.6273,151.544,99.8719,100.445,0.00869596,0.129115,20.832,75.187,-0.0512806,0.0,0.0
942,235.25,50.1812,54.5761,151.024,99.8666,100.454,0.00869557,0.129041,20.8322,75.1169,-0.0525669,0.0,0.0
945,236,50.1229,54.4989,150.768,99.8629,100.597,0.00869418,0.128861,20.8323,75.0869,-0.0656349,0.0,0.0
948,236.75,49.8954,54.2838,152.458,99.8944,100.592,0.00869501,0.128583,20.8326,75.1569,-0.0623829,0.0,0.0
951,237.5,49.8701,53.6024,148.264,99.9055,100.434,0.00868788,0.128248,20.8333,75.1669,-0.0472264,0.0,0.0
954,238.25,50.0105,53.6864,150.442,99.9055,100.427,0.00867465,0.127885,20.8337,75.1069,-0.0466102,0.0,0.0
957,239,49.3951,53.6536,149.395,99.9149,100.572,0.00865689,0.127597,20.8341,75.0268,-0.0586994,0.0,0.0
960,239.75,49.8771,53.6006,147.208,99.9326,100.57,0.00864258,0.127347,20.8343,75.0969,-0.056927,0.0,0.0
963,240.5,49.8006,53.1702,148.117,99.9522,100.661,0.00862984,0.127173,20.8345,75.1169,-0.0633148,0.0,0.0
966,241.25,49.1973,53.3914,153.861,99.9371,100.624,0.00861411,0.127059,20.8353,75.0869,-0.0613302,0.0,0.0
969,242,48.8231,52.8322,149.675,99.9367,100.618,0.00859584,0.12683,20.8358,74.9968,-0.0608668,0.0,0.0
972,242.75,49.1406,52.6472,149.145,99.9481,100.667,0.00857557,0.126545,20.8362,75.0368,-0.0641817,0.0,0.0
975,243.5,48.821,52.842,154.183,99.9629,100.626,0.00855161,0.126257,20.8365,75.0669,-0.0592084,0.0,0.0
978,244.25,48.7239,52.148,151.054,99.9616,100.724,0.00853801,0.126072,20.8367,75.0669,-0.0680407,0.0,0.0
981,245,48.8917,52.4831,148.12,99.9571,100.749,0.00851717,0.125817,20.8373,74.9668,-0.0706726,0.0,0.0
984,245.75,48.5534,52.3434,150.688,99.9649,100.596,0.0084962,0.125585,20.8379,74.9568,-0.0563709,0.0,0.0
987,246.5,48.695,52.3769,144.968,99.9821,100.624,0.0084721,0.125337,20.8384,75.0568,-0.0573666,0.0,0.0
990,247.25,48.0853,51.9195,147.729,99.9662,100.681,0.00843949,0.125067,20.8387,75.0168,-0.0638719,0.0,0.0
993,248,48.365,51.9148,153.542,99.9678,100.621,0.00840414,0.124811,20.839,74.9267,-0.058306,0.0,0.0
996,248.75,48.419,51.5538,145.855,99.9653,100.615,0.00837344,0.124584,20.8392,74.9067,-0.0580647,0.0,0.0
999,249.5,48.4241,51.2207,150.881,99.9649,100.653,0.00835106,0.124389,20.8393,74.9968,-0.0614076,0.0,0.0
1002,250.25,48.2248,51.6125,151.497,99.9653,100.669,0.00835858,0.124289,20.8394,74.9868,-0.0628314,0.0,0.0
1005,251,47.9295,50.5816,150.534,99.9604,100.545,0.00837829,0.124308,20.8395,74.8967,-0.052236,0.0,0.0
1008,251.75,48.2768,51.039,148.994,99.9657,100.568,0.00841697,0.124439,20.8395,74.8967,-0.0538367,0.0,0.0
1011,252.5,47.9102,50.5911,148.592,99.9649,100.556,0.0084819,0.124585,20.8395,74.9768,-0.0527941,0.0,0.0
1014,253.25,47.7356,51.3519,154.243,99.9518,100.531,0.00852923,0.124733,20.8396,74.9868,-0.0517381,0.0,0.0
1017,254,47.8025,50.813,152.947,99.942,100.499,0.00861336,0.124768,20.8396,74.8667,-0.0498103,0.0,0.0
1020,254.75,47.6492,50.6423,146.43,99.9321,100.55,0.00868886,0.124731,20.8396,74.8467,-0.0552329,0.0,0.0
1023,255.5,46.7711,50.402,145.632,99.9547,100.447,0.00874995,0.124651,20.8396,74.9267,-0.0440514,0.0,0.0
1026,256.25,47.2329,50.6434,150.946,99.9338,100.522,0.00879707,0.124539,20.8396,74.9167,-0.0525846,0.0,0.0
1029,257,47.501,50.8534,146.468,99.9157,100.562,0.00882301,0.124365,20.8393,74.8366,-0.0577412,0.0,0.0
1032,257.75,47.3389,50.3652,149.985,99.9096,100.535,0.00882568,0.124154,20.839,74.8266,-0.0559448,0.0,0.0
1035,258.5,46.6418,50.0706,147.317,99.9059,100.555,0.00879087,0.123986,20.8388,74.9067,-0.0580459,0.0,0.0
1038,259.25,47.1719,49.8349,151.426,99.8998,100.586,0.00874489,0.123857,20.8387,74.8867,-0.0612893,0.0,0.0
1041,260,46.7959,50.0671,150.675,99.9059,100.65,0.00871523,0.123837,20.8386,74.8467,-0.0665053,0.0,0.0
1044,260.75,47.2284,50.0332,148.153,99.8756,100.368,0.00868165,0.123872,20.8385,74.7766,-0.0440916,0.0,0.0
1047,261.5,47.0847,49.8869,154.971,99.8682,100.567,0.00865833,0.123928,20.8383,74.8467,-0.062427,0.0,0.0
1050,262.25,47.0871,49.7237,148.368,99.8625,100.542,0.00865937,0.124022,20.8381,74.8667,-0.0607103,0.0,0.0
1053,263,46.3844,49.3815,151.612,99.8584,100.411,0.00867594,0.124112,20.8379,74.8366,-0.0494501,0.0,0.0
1056,263.75,46.575,49.4831,154.223,99.8354,100.508,0.00870194,0.124118,20.8378,74.7566,-0.0601733,0.0,0.0
1059,264.5,46.5288,49.6232,153.022,99.8268,100.353,0.00874295,0.124052,20.8377,74.7866,-0.0471169,0.0,0.0
1062,265.25,46.6979,48.8768,157.265,99.8346,100.567,0.00878572,0.123885,20.8376,74.8266,-0.0654795,0.0,0.0
1065,266,46.5565,49.1674,150.591,99.8391,100.354,0.00881303,0.123698,20.8378,74.8166,-0.0460918,0.0,0.0
1068,266.75,46.101,49.0175,152.658,99.8006,100.421,0.0088313,0.123532,20.8384,74.7165,-0.055559,0.0,0.0
1071,267.5,46.1211,48.9946,151.642,99.8047,100.358,0.00881887,0.123399,20.8388,74.7366,-0.0494887,0.0,0.0
1074,268.25,46.1708,49.3148,154.429,99.8043,100.454,0.00879964,0.123323,20.839,74.7966,-0.0581561,0.0,0.0
1077,269,46.6361,48.6878,151.208,99.7986,100.329,0.00876823,0.123311,20.8392,74.7866,-0.0474573,0.0,0.0
1080,269.75,45.6855,48.7418,149.996,99.7793,100.374,0.0087086,0.123298,20.8394,74.6765,-0.0532334,0.0,0.0
1083,270.5,46.1098,48.621,148.826,99.7699,100.227,0.00864068,0.123249,20.8395,74.6865,-0.0409284,0.0,0.0
1086,271.25,45.8466,48.3508,151.544,99.7744,100.387,0.00858075,0.123228,20.8396,74.7766,-0.0548316,0.0,0.0
1089,272,45.9191,47.9112,153.405,99.7498,100.495,0.00852788,0.123235,20.8396,74.7566,-0.066707,0.0,0.0
1092,272.75,45.575,47.9154,151.297,99.7453,100.325,0.00850349,0.123266,20.8397,74.6865,-0.0519315,0.0,0.0
1095,273.5,45.9194,48.0003,152.871,99.7416,100.26,0.00849174,0.123215,20.8397,74.6465,-0.0464396,0.0,0.0
1098,274.25,45.6983,47.8847,149.285,99.7281,100.466,0.00850249,0.123147,20.8397,74.7266,-0.0660394,0.0,0.0
1101,275,45.2978,48.1656,148.271,99.7186,100.27,0.00852464,0.122965,20.8398,74.7165,-0.0494264,0.0,0.0
1104,275.75,45.6673,48.3879,155,99.7088,100.283,0.00855123,0.122746,20.8398,74.6565,-0.0514675,0.0,0.0
1107,276.5,45.4913,47.5669,150.317,99.6936,100.27,0.00858091,0.122533,20.8398,74.6165,-0.0516721,0.0,0.0
1110,277.25,45.2117,48.238,148.908,99.6945,100.336,0.00861168,0.122274,20.8398,74.6665,-0.0574999,0.0,0.0
1113,278,45.3672,47.7553,151.033,99.685,100.363,0.00864223,0.122085,20.8398,74.6965,-0.060698,0.0,0.0
1116,278.75,45.1141,47.821,149.047,99.667,100.185,0.00866857,0.121903,20.8398,74.6665,-0.0464234,0.0,0.0
1119,279.5,45.117,47.1946,151.779,99.6592,100.183,0.00869473,0.121775,20.8402,74.5864,-0.0469307,0.0,0.0
1122,280.25,44.7063,47.6167,149.221,99.6437,100.111,0.00872299,0.121721,20.8405,74.6265,-0.0418795,0.0,0.0
1125,281,44.8015,47.5445,150.726,99.6564,100.28,0.00874359,0.121702,20.8407,74.6665,-0.0559115,0.0,0.0
1128,281.75,44.9681,47.4369,151.289,99.6314,100.234,0.00877664,0.121689,20.8409,74.6565,-0.0539908,0.0,0.0
1131,282.5,44.8018,46.8423,150.657,99.6223,100.23,0.00881793,0.121651,20.841,74.5664,-0.054455,0.0,0.0
1134,283.25,44.1951,47.1185,153.388,99.6109,100.183,0.00886428,0.121589,20.8413,74.5664,-0.0512784,0.0,0.0
1137,284,44.5247,47.2017,148.828,99.6182,100.296,0.0089071,0.121504,20.8416,74.6365,-0.0607265,0.0,0.0
1140,284.75,44.6525,46.4909,149.775,99.6084,100.169,0.00894692,0.121504,20.8417,74.6465,-0.0503017,0.0,0.0
1143,285.5,44.9318,46.7269,151.606,99.5863,100.185,0.00899679,0.121568,20.8419,74.5164,-0.0537212,0.0,0.0
1146,286.25,44.8925,46.3794,151.893,99.5838,100.084,0.00901852,0.121592,20.8419,74.5264,-0.0448638,0.0,0.0
1149,287,44.7531,46.6684,147.875,99.5965,100.295,0.00903848,0.121611,20.8422,74.6065,-0.0626018,0.0,0.0
1152,287.75,44.7784,46.8091,148.847,99.5978,100.171,0.00905414,0.121607,20.843,74.5964,-0.051453,0.0,0.0
1155,288.5,44.7379,46.5228,146.876,99.5797,100.239,0.00904562,0.121602,20.8433,74.5164,-0.0590977,0.0,0.0
1158,289.25,44.5858,46.2924,151.887,99.5687,100.15,0.00903443,0.121514,20.8436,74.4863,-0.0521785,0.0,0.0
1161,290,44.3553,45.798,146.401,99.5806,100.13,0.00902395,0.121332,20.8439,74.5664,-0.0493319,0.0,0.0
1164,290.75,43.6378,46.0609,146.97,99.5752,100.127,0.00900894,0.121126,20.844,74.5764,-0.0495016,0.0,0.0
1167,291.5,44.8033,46.1511,153.298,99.5531,100.102,0.00899156,0.120937,20.8442,74.4763,-0.0492133,0.0,0.0
1170,292.25,44.3845,46.241,150.223,99.5449,100.021,0.00897614,0.120711,20.8443,74.4563,-0.0427213,0.0,0.0
1173,293,44.3622,45.7786,153.347,99.5486,100.089,0.00896121,0.120509,20.8443,74.5464,-0.0485368,0.0,0.0
1176,293.75,44.1533,45.9183,154.447,99.5433,100.016,0.00895421,0.120403,20.8444,74.5364,-0.0424434,0.0,0.0
1179,294.5,43.9793,45.2979,150.095,99.5351,100.093,0.00895075,0.120319,20.8444,74.4263,-0.0501019,0.0,0.0
1182,295.25,43.8813,46.0958,148.918,99.5166,100.139,0.00897402,0.120244,20.8444,74.4363,-0.0558191,0.0,0.0
1185,296,44.3454,45.5972,150.519,99.533,100.092,0.0090149,0.12016,20.8445,74.5064,-0.0501706,0.0,0.0
1188,296.75,44.083,45.9607,150.823,99.5363,100.101,0.00906678,0.120079,20.8445,74.4964,-0.050648,0.0,0.0
1191,297.5,43.8919,45.7625,152.059,99.5195,100.095,0.00911654,0.120028,20.8445,74.4363,-0.0516189,0.0,0.0
1194,298.25,44.0526,45.6027,152.284,99.4953,100.035,0.00917743,0.119969,20.8445,74.4063,-0.0484992,0.0,0.0
1197,299,43.7018,45.4614,149.768,99.5121,100.022,0.00922764,0.119911,20.8451,74.4863,-0.0458266,0.0,0.0
1200,299.75,43.939,45.2388,148.27,99.5084,100.002,0.00925318,0.119842,20.8456,74.4863,-0.0443015,0.0,0.0
1203,300.5,43.7283,45.6926,149.134,99.4994,100.134,0.00926364,0.119605,20.8459,74.4363,-0.0569819,0.0,0.0
1206,301.25,43.8204,45.2596,149.365,99.4875,100.079,0.00925732,0.119431,20.8462,74.3762,-0.0531443,0.0,0.0
1209,302,43.7329,45.3146,148.484,99.4912,100.03,0.00925271,0.119232,20.8464,74.4163,-0.0484042,0.0,0.0
1212,302.75,43.798,45.2684,151.512,99.5072,100.007,0.00921836,0.119055,20.8465,74.4463,-0.0449154,0.0,0.0
1215,303.5,43.7678,45.1151,149.672,99.5084,100.103,0.00918012,0.118956,20.8465,74.4163,-0.0533495,0.0,0.0
1218,304.25,43.915,44.8366,152.775,99.4826,99.9871,0.00913751,0.118911,20.8465,74.3462,-0.0453114,0.0,0.0
1221,305,43.439,45.2465,151.009,99.4818,100.073,0.00910774,0.118905,20.8466,74.3662,-0.0530427,0.0,0.0
1224,305.75,43.4053,44.98,150.565,99.4892,100.061,0.00908999,0.118858,20.8466,74.4163,-0.0513343,0.0,0.0
1227,306.5,43.3387,45.1389,150.428,99.492,99.9819,0.00908285,0.11881,20.8466,74.4063,-0.0439977,0.0,0.0
1230,307.25,43.6256,44.5399,152.098,99.5051,99.9314,0.00909237,0.118753,20.8466,74.3062,-0.0382892,0.0,0.0
1233,308,43.686,45.0942,147.789,99.5408,100.125,0.0091019,0.118685,20.8466,74.3162,-0.0524449,0.0,0.0
1236,308.75,43.1077,44.5582,148.002,99.5777,100.191,0.00910994,0.118548,20.8466,74.3963,-0.0550357,0.0,0.0
1239,309.5,43.1685,44.5402,151.999,99.6019,100.214,0.0091158,0.118411,20.8471,74.3762,-0.0549073,0.0,0.0
1242,310.25,43.0214,44.7063,146.364,99.6129,100.023,0.00912144,0.118144,20.8476,74.2862,-0.0368334,0.0,0.0
1245,311,43.1945,44.6048,149.87,99.6338,100.191,0.00912787,0.117891,20.8473,74.2762,-0.0499478,0.0,0.0
1248,311.75,43.3415,44.2872,153.346,99.6805,100.145,0.0091344,0.117643,20.8476,74.3562,-0.0416167,0.0,0.0
1251,312.5,42.8201,44.6151,148.347,99.7014,100.339,0.00914045,0.117397,20.848,74.3362,-0.0570657,0.0,0.0
1254,313.25,42.7825,44.4411,150.633,99.7215,100.155,0.00914541,0.117115,20.8482,74.2862,-0.0388233,0.0,0.0
1257,314,43.351,44.4451,154.438,99.7428,100.299,0.00914534,0.116866,20.8484,74.2361,-0.0498007,0.0,0.0
1260,314.75,42.4018,44.2167,152.912,99.7731,100.297,0.00914271,0.11658,20.8486,74.3262,-0.0468845,0.0,0.0
1263,315.5,42.9932,44.6885,152.482,99.7895,100.364,0.00913969,0.11638,20.8487,74.3262,-0.0514283,0.0,0.0
1266,316.25,42.6208,44.2944,151.419,99.8223,100.251,0.00914008,0.116246,20.849,74.3062,-0.03842,0.0,0.0
1269,317,42.8357,44.3264,149.399,99.8305,100.238,0.00913942,0.116222,20.8496,74.2361,-0.0364876,0.0,0.0
1272,317.75,43.079,43.6433,152.569,99.8608,100.438,0.00913545,0.116213,20.8501,74.2762,-0.0516565,0.0,0.0
1275,318.5,43.0482,44.1618,149.064,99.885,100.354,0.00911836,0.116167,20.8504,74.3162,-0.0419745,0.0,0.0
1278,319.25,42.2662,43.5572,151.462,99.894,100.516,0.00909469,0.116091,20.8506,74.2762,-0.0556482,0.0,0.0
1281,320,42.277,43.8704,152.532,99.908,100.289,0.00908135,0.116022,20.8508,74.1961,-0.0340935,0.0,0.0
1284,320.75,42.0331,43.4813,152.294,99.9231,100.417,0.00908208,0.115957,20.851,74.2061,-0.0441829,0.0,0.0
1287,321.5,42.3421,43.5736,152.056,99.9559,100.514,0.00911575,0.115897,20.851,74.2661,-0.0499086,0.0,0.0
1290,322.25,42.3481,43.8038,154.696,99.9707,100.414,0.00914029,0.115811,20.8511,74.2561,-0.0396524,0.0,0.0
1293,323,42.4608,44.0604,150.321,99.9846,100.569,0.00920609,0.115749,20.8512,74.1661,-0.0521861,0.0,0.0
1296,323.75,42.1105,43.3348,150.859,100.002,100.467,0.00925611,0.115724,20.8512,74.1661,-0.0415995,0.0,0.0
1299,324.5,42.5037,43.6787,150.656,100.021,100.571,0.00929606,0.115706,20.8512,74.2461,-0.0491483,0.0,0.0
1302,325.25,42.3706,43.813,149.762,100.04,100.503,0.00930276,0.115531,20.8512,74.2461,-0.0413806,0.0,0.0
1303,325.5,42.3183,43.6509,153.826,100.042,100.472,0.0092904,0.115459,20.8511,74.2461,-0.038427,0.0,0.0