File: 01_Data/Masonite_Board/Cone/Masonite_Cone_HF25Scan_230106_R1.csv
Names,Time,Stack TC,Smoke TC,Exh Press,Smoke Comp,Smoke Meas,CO Meter,CO2 Meter,O2 Meter,Sample Mass,Ext Coeff,Start Test,Flame Verif
Chan Gain,,500,500,1,1,1,1,1,1,1,1,1.0,1.0
Offset,,0,0,0.303564,0,0,0,0,0,0,0,0.0,0.0
Gain,,1,1,25.011,13.2951,15.9845,1,1,1,1.00088,1.03447,1.0,1.0
Units,sec,C,C,Pa,%,%,%,%,%,g,/m,,
Baseline,,23.4813,24.5364,155.15,99.7912,99.8051,0.000748472,0.0499833,20.9606,-443.801,-0.00126491,,
4,0.75,21.6677,22.2878,157.543,100.585,100.669,0.000924716,0.0662379,20.9297,177.155,-0.00759052,0.0,0.0
8,1.75,21.5936,22.6947,155.418,100.58,100.651,0.000983672,0.0652601,20.9333,177.045,-0.00648304,0.0,0.0
12,2.75,21.6055,21.773,153.645,100.579,100.484,0.00102174,0.0649242,20.9352,177.135,0.00858498,0.0,0.0
16,3.75,20.5599,21.8702,158.252,100.576,100.535,0.00104792,0.0646598,20.9375,177.225,0.00365988,0.0,0.0
20,4.75,21.5582,22.1217,158.78,100.577,100.441,0.00103484,0.0643549,20.9393,177.185,0.0122792,0.0,0.0
24,5.75,21.6184,22.5702,153.078,100.584,100.579,0.00100499,0.0631234,20.9404,177.145,0.000438095,0.0,0.0
28,6.75,21.659,22.221,154.258,100.574,100.449,0.000945524,0.0612332,20.9411,177.115,0.011281,0.0,0.0
32,7.75,21.9405,22.7581,151.607,100.577,100.488,0.000888622,0.0588496,20.9424,177.115,0.00804893,0.0,0.0
36,8.75,21.3355,22.368,156.041,100.571,100.381,0.000854488,0.0566779,20.9433,177.095,0.0171899,0.0,0.0
40,9.75,21.8502,22.7014,155.479,100.566,100.388,0.000845627,0.0548316,20.9451,177.085,0.0160961,0.0,0.0
44,10.75,21.2139,22.2693,156.102,100.572,100.599,0.000857863,0.0533094,20.9471,177.005,-0.00247212,0.0,0.0
48,11.75,21.7705,22.8408,154.429,100.565,100.579,0.000874782,0.052236,20.9492,176.935,-0.00120947,0.0,0.0
52,12.75,21.9302,22.8816,152.639,100.567,100.48,0.000884994,0.0514072,20.9509,177.015,0.00787492,0.0,0.0
56,13.75,21.8685,22.9813,154.943,100.557,100.61,0.000883691,0.0508009,20.9529,177.015,-0.00475767,0.0,0.0
60,14.75,22.0469,22.7106,157.338,100.565,100.279,0.000856629,0.050365,20.9548,177.055,0.0258978,0.0,0.0
64,15.75,22.0215,23.1357,155.683,100.565,100.357,0.000818575,0.0500236,20.9562,177.015,0.0187931,0.0,0.0
68,16.75,21.7775,22.9299,151.555,100.563,100.398,0.000772006,0.0497352,20.9572,177.015,0.0148694,0.0,0.0
72,17.75,21.891,22.7086,152.264,100.553,100.452,0.000723868,0.0495377,20.9578,176.995,0.00910587,0.0,0.0
76,18.75,22.2801,22.8464,152.04,100.554,100.457,0.000672753,0.0494454,20.9582,177.005,0.00873736,0.0,0.0
80,19.75,22.0826,23.0004,156.284,100.556,100.44,0.000633962,0.0494431,20.9585,176.945,0.0104923,0.0,0.0
84,20.75,21.6682,23.1327,157.757,100.553,100.284,0.000567975,0.0495499,20.9588,176.945,0.0243573,0.0,0.0
88,21.75,22.0042,23.2631,156.506,100.567,100.411,0.000530003,0.0497694,20.9591,176.915,0.0141328,0.0,0.0
92,22.75,21.9501,22.626,157.312,100.564,100.394,0.000518963,0.0503874,20.959,176.885,0.0152959,0.0,0.0
96,23.75,21.9864,22.9408,158.773,100.558,100.454,0.00054047,0.0514517,20.9584,176.895,0.00940521,0.0,0.0
100,24.75,22.1636,22.7802,156.891,100.557,100.222,0.000592121,0.052862,20.958,176.895,0.0303322,0.0,0.0
104,25.75,21.9563,23.13,156.865,100.552,100.311,0.000667846,0.0542657,20.9578,176.895,0.0217397,0.0,0.0
108,26.75,21.4554,23.5031,151.447,100.554,100.253,0.00072211,0.0551948,20.9577,176.865,0.0272115,0.0,0.0
112,27.75,22.6015,23.8157,151.808,100.552,100.137,0.000807883,0.0561097,20.9571,176.845,0.0375,0.0,0.0
116,28.75,22.5263,23.205,156.571,100.555,100.174,0.000881268,0.0565515,20.9559,176.825,0.0344411,0.0,0.0
120,29.75,22.2815,23.5539,154.778,100.538,100.315,0.000939265,0.0566062,20.9549,176.835,0.0201413,0.0,0.0
124,30.75,22.5265,23.5111,151.113,100.54,100.263,0.000984093,0.0561935,20.9544,176.805,0.0250402,0.0,0.0
128,31.75,22.3988,23.1811,153.992,100.546,100.377,0.00102902,0.0554744,20.9541,176.795,0.0152344,0.0,0.0
132,32.75,21.8779,23.0499,156.493,100.534,100.175,0.00107978,0.0545871,20.9539,176.795,0.0324408,0.0,0.0
136,33.75,22.6623,23.5099,155.142,100.537,100.22,0.00114033,0.053704,20.9537,176.775,0.0286404,0.0,0.0
140,34.75,22.3247,23.311,153.991,100.535,100.15,0.00120679,0.0528794,20.9536,176.755,0.0348118,0.0,0.0
144,35.75,22.4928,23.1792,151.868,100.533,100.346,0.00125533,0.0520376,20.9536,176.735,0.0168422,0.0,0.0
148,36.75,22.2712,23.5815,155.807,100.524,100.189,0.00126579,0.051245,20.9542,176.705,0.0302955,0.0,0.0
152,37.75,21.9904,23.4485,154.579,100.521,100.02,0.00123661,0.0506402,20.9552,176.675,0.0453758,0.0,0.0
156,38.75,22.1495,23.7764,153.375,100.517,100.13,0.00118312,0.0503554,20.9562,176.645,0.0350133,0.0,0.0
160,39.75,22.6906,23.8455,153.901,100.519,100.018,0.00109811,0.0504319,20.9569,176.665,0.0453263,0.0,0.0
164,40.75,22.5898,23.5759,152.157,100.505,99.949,0.0010191,0.0505028,20.9573,176.635,0.05033,0.0,0.0
168,41.75,22.3786,22.7469,152.731,100.498,100.031,0.000881571,0.0505694,20.9576,176.625,0.04227,0.0,0.0
172,42.75,22.4873,23.4704,155.261,100.495,99.9793,0.000728272,0.050625,20.9578,176.595,0.0466695,0.0,0.0
176,43.75,22.537,23.263,156.019,100.487,99.9983,0.000618529,0.0505596,20.9587,176.575,0.0442467,0.0,0.0
180,44.75,22.4946,23.5721,159.137,100.48,100.107,0.00052745,0.0503905,20.959,176.575,0.033802,0.0,0.0
184,45.75,22.5518,23.4801,156.506,100.46,99.9149,0.000485493,0.0501405,20.9592,176.535,0.0493639,0.0,0.0
188,46.75,22.9727,23.6148,161.482,100.442,99.8695,0.00049698,0.0498241,20.9594,176.525,0.0518725,0.0,0.0
192,47.75,22.5433,23.6344,154.405,100.43,99.9793,0.000541263,0.0495685,20.9595,176.555,0.0408422,0.0,0.0
196,48.75,22.4086,23.9926,155.485,100.417,100.011,0.000636066,0.049389,20.9595,176.535,0.036747,0.0,0.0
200,49.75,22.216,24.0056,155.903,100.4,99.8261,0.000744333,0.0492163,20.9596,176.535,0.0520048,0.0,0.0
204,50.75,22.1271,23.3979,157.371,100.373,99.8173,0.000810551,0.049024,20.9594,176.505,0.0503827,0.0,0.0
208,51.75,22.7828,23.6728,150.57,100.359,99.5173,0.000825716,0.0488716,20.9592,176.485,0.0764495,0.0,0.0
212,52.75,22.664,23.4096,153.001,100.34,99.6286,0.000799737,0.0487189,20.9591,176.434,0.0645887,0.0,0.0
216,53.75,22.6658,23.6321,155.18,100.321,99.7671,0.000756064,0.04864,20.959,176.445,0.0502192,0.0,0.0
220,54.75,22.3223,23.4925,156.46,100.293,99.7739,0.000681864,0.0485516,20.9589,176.394,0.0470645,0.0,0.0
224,55.75,22.5798,23.5917,149.322,100.268,99.6568,0.000615435,0.0484564,20.9593,176.364,0.0554427,0.0,0.0
228,56.75,22.2919,23.5566,151.631,100.254,99.4822,0.000565302,0.0483412,20.9599,176.314,0.0701099,0.0,0.0
232,57.75,22.2005,23.806,155.05,100.221,99.5251,0.000536909,0.0482657,20.9603,176.294,0.0632192,0.0,0.0
236,58.75,22.5285,23.5509,154.884,100.186,99.5622,0.0005248,0.0483477,20.9606,176.254,0.0567167,0.0,0.0
240,59.75,22.4113,23.5114,159.702,100.158,99.5544,0.000523456,0.0484805,20.9608,176.234,0.054818,0.0,0.0
244,60.75,22.3037,23.8297,156.744,100.132,99.472,0.000537686,0.0484846,20.9609,176.194,0.0599819,0.0,0.0
248,61.75,23.1206,23.72,154.939,100.073,99.6139,0.00055661,0.048465,20.961,176.174,0.0417457,0.0,0.0
252,62.75,22.8024,24.091,156.561,100.036,99.1642,0.000595666,0.0484751,20.961,176.164,0.0794245,0.0,0.0
256,63.75,22.3492,24.3575,152.986,99.9856,99.1432,0.000655867,0.0485377,20.9611,176.104,0.0767788,0.0,0.0
260,64.75,23.1543,23.813,153.713,99.945,98.99,0.00072754,0.0486051,20.9606,176.064,0.0871259,0.0,0.0
264,65.75,22.8794,23.7588,152.036,99.9109,99.0968,0.000785136,0.0486494,20.96,176.014,0.0742438,0.0,0.0
268,66.75,22.6818,24.0571,155.219,99.874,99.3154,0.000824945,0.0486937,20.9596,176.014,0.0509001,0.0,0.0
272,67.75,22.6322,23.6699,157.495,99.8387,99.1432,0.000840393,0.0487677,20.9594,176.004,0.0634394,0.0,0.0
276,68.75,22.6046,23.8763,154.61,99.8144,99.1461,0.000838771,0.048835,20.9592,175.954,0.0609587,0.0,0.0
280,69.75,22.7603,24.0383,158.069,99.7734,98.9895,0.000825345,0.0488002,20.9591,175.924,0.071575,0.0,0.0
284,70.75,22.4066,24.246,156.882,99.7466,99.1481,0.000803243,0.0487999,20.9591,175.894,0.054618,0.0,0.0
288,71.75,22.3565,23.8143,155.013,99.7308,99.0261,0.000772736,0.0488473,20.959,175.894,0.0643471,0.0,0.0
292,72.75,22.6734,24.0303,154.256,99.6902,98.9393,0.000742105,0.048931,20.9593,175.864,0.0686145,0.0,0.0
296,73.75,23.0903,23.5757,152.708,99.6752,98.8407,0.000715613,0.0491008,20.9595,175.804,0.0762896,0.0,0.0
300,74.75,22.5469,23.6607,157.48,99.6663,98.8661,0.000682455,0.0492546,20.9596,175.774,0.0731483,0.0,0.0
304,75.75,22.7449,23.5924,152.097,99.6622,98.9388,0.000642674,0.049398,20.9597,175.744,0.0661106,0.0,0.0
308,76.75,22.7739,23.7934,155.217,99.7089,98.8949,0.000609473,0.0495667,20.9597,175.704,0.0743854,0.0,0.0
312,77.75,22.63,24.0159,159.19,99.7543,99.0115,0.000580454,0.0496511,20.9598,175.654,0.0678286,0.0,0.0
316,78.75,22.6125,23.909,151.661,99.8091,99.0964,0.00055625,0.0496538,20.9598,175.624,0.0650344,0.0,0.0
320,79.75,22.7992,24.0361,155.414,99.8485,99.0364,0.000529882,0.0496293,20.9598,175.594,0.0741075,0.0,0.0
324,80.75,22.9231,23.7568,155.829,99.8963,99.2564,0.000501297,0.0495605,20.9598,175.574,0.0583226,0.0,0.0
328,81.75,22.8533,23.9668,157.475,99.9195,99.2529,0.000472361,0.0494928,20.9598,175.554,0.0607341,0.0,0.0
332,82.75,22.5472,23.8115,153.176,99.9747,99.2842,0.000459697,0.0494569,20.9595,175.534,0.0628905,0.0,0.0
336,83.75,22.4006,24.1474,155.206,99.9763,99.3173,0.0004743,0.0494476,20.9594,175.524,0.0600067,0.0,0.0
340,84.75,22.7399,23.5356,153.778,100.01,99.3407,0.000517925,0.0492284,20.9592,175.504,0.0609609,0.0,0.0
344,85.75,22.9047,23.4844,157.341,100.016,99.3651,0.000567572,0.0490639,20.9592,175.464,0.0592114,0.0,0.0
348,86.75,22.5665,23.9113,155.33,100.046,99.2973,0.00062109,0.0489711,20.9591,175.434,0.0681292,0.0,0.0
352,87.75,22.8668,23.9468,148.182,100.048,99.3315,0.000684001,0.0488576,20.9591,175.414,0.0652664,0.0,0.0
356,88.75,23.2287,23.9269,157.513,100.056,99.3622,0.000763922,0.0487651,20.959,175.384,0.063159,0.0,0.0
360,89.75,22.632,23.8813,152.468,100.062,99.5086,0.00084037,0.048728,20.959,175.354,0.0503192,0.0,0.0
364,90.75,22.6741,24.3474,151.421,100.076,99.4803,0.000904319,0.0486414,20.959,175.334,0.0541503,0.0,0.0
368,91.75,22.4083,23.7246,153.727,100.083,99.4881,0.000979914,0.0485832,20.9594,175.314,0.0540642,0.0,0.0
372,92.75,22.7916,23.6406,150.813,100.085,99.2139,0.00104533,0.048613,20.9597,175.273,0.0793248,0.0,0.0
376,93.75,22.8678,23.6619,158.128,100.084,99.3261,0.00109277,0.0487301,20.9599,175.253,0.0689581,0.0,0.0
380,94.75,22.4763,23.5734,158.315,100.094,99.3364,0.00112841,0.0488935,20.9601,175.223,0.0689044,0.0,0.0
384,95.75,22.4215,24.0205,151.764,100.087,99.2803,0.00115714,0.0490755,20.9601,175.203,0.0734798,0.0,0.0
388,96.75,22.8423,24.2328,150.87,100.085,99.2129,0.00118118,0.0491159,20.9602,175.153,0.0794138,0.0,0.0
392,97.75,23.2041,24.4529,152.698,100.086,99.1788,0.00118881,0.0491424,20.9602,175.133,0.0826474,0.0,0.0
396,98.75,22.7458,23.8595,154.674,100.087,99.3017,0.00115343,0.049139,20.9603,175.083,0.0714816,0.0,0.0
400,99.75,23.8538,23.7352,154.363,100.087,99.192,0.001089,0.0491105,20.9603,175.033,0.0815539,0.0,0.0
404,100.75,22.6626,23.8784,153.526,100.083,99.3007,0.00102103,0.0491484,20.9603,175.003,0.0712391,0.0,0.0
408,101.75,22.9794,24.052,156.855,100.076,99.3466,0.000968429,0.0491693,20.9603,175.023,0.0663511,0.0,0.0
412,102.75,22.8976,24.1876,154.534,100.074,99.3656,0.00093392,0.0492065,20.9603,175.003,0.0644663,0.0,0.0
416,103.75,22.6532,23.9434,150.867,100.062,99.2715,0.000904509,0.0492928,20.9603,174.973,0.0720011,0.0,0.0
420,104.75,22.7282,24.1932,155.149,100.055,99.2315,0.000870259,0.0494427,20.9603,174.953,0.0749594,0.0,0.0
424,105.75,23.0234,24.1856,152.359,100.061,99.2646,0.000830691,0.0496201,20.9603,174.933,0.0725516,0.0,0.0
428,106.75,23.1848,24.1523,153.014,100.046,99.2539,0.000818139,0.0498609,20.9603,174.933,0.0721717,0.0,0.0
432,107.75,22.5293,23.7193,150.065,100.045,99.129,0.000838994,0.0501769,20.9603,174.933,0.0834491,0.0,0.0
436,108.75,22.7996,24.0744,153.04,100.044,99.1749,0.000866107,0.0506669,20.9603,174.913,0.0792155,0.0,0.0
440,109.75,22.6606,24.1119,156.025,100.029,99.0012,0.000882504,0.0513252,20.9603,174.913,0.0936837,0.0,0.0
444,110.75,22.6453,24.5773,154.405,100.028,99.1261,0.000882058,0.0519317,20.9603,174.893,0.0822068,0.0,0.0
448,111.75,23.11,24.3938,154.594,100.035,99.3242,0.00086146,0.0524122,20.9597,174.873,0.0646843,0.0,0.0
452,112.75,22.8544,24.1261,151.814,100.027,98.9686,0.000853278,0.0527275,20.9591,174.853,0.0965322,0.0,0.0
456,113.75,22.7006,24.1033,157.004,100.027,98.9485,0.000849344,0.0527742,20.9581,174.833,0.0983302,0.0,0.0
460,114.75,23.1931,24.0129,152.919,100.023,99.2983,0.000898673,0.0525149,20.9572,174.813,0.0660161,0.0,0.0
464,115.75,23.0959,23.4048,154.727,100.038,99.0329,0.00095588,0.0520987,20.9567,174.763,0.0915883,0.0,0.0
468,116.75,22.8842,23.9766,154.395,100.024,99.0212,0.000977603,0.0516777,20.9563,174.773,0.0914458,0.0,0.0
472,117.75,22.7707,24.2389,153.839,100.023,99.1159,0.000962507,0.0512708,20.9567,174.713,0.0827031,0.0,0.0
476,118.75,22.4901,23.8445,155.243,100.023,99.172,0.000947615,0.0507931,20.9571,174.703,0.0775317,0.0,0.0
480,119.75,22.8795,23.6829,154.212,100.019,99.0651,0.000933804,0.0504175,20.9574,174.713,0.0869448,0.0,0.0
484,120.75,22.2758,23.6651,155.592,100.016,99.2207,0.000918837,0.0501336,20.9576,174.683,0.0724443,0.0,0.0
488,121.75,22.0759,23.5187,157.542,100.01,99.01,0.000893957,0.0498587,20.9577,174.683,0.0911856,0.0,0.0
492,122.75,22.5425,23.7598,160.093,100.018,99.1578,0.000882595,0.0495524,20.9586,174.663,0.0784219,0.0,0.0
496,123.75,22.9619,24.293,154.71,100.018,99.0944,0.000901647,0.0493526,20.9592,174.663,0.0842273,0.0,0.0
500,124.75,23.147,24.3852,159.353,100.019,98.9466,0.000939763,0.0492603,20.9596,174.673,0.0978454,0.0,0.0
504,125.75,22.6308,23.7949,152.502,100.021,98.7988,0.00100215,0.0492371,20.9598,174.673,0.111522,0.0,0.0
508,126.75,22.4143,23.8371,157.093,100.031,98.6285,0.00107312,0.0492483,20.96,174.613,0.128091,0.0,0.0
512,127.75,22.9371,24.2637,156.595,100.026,98.7368,0.00114836,0.0492292,20.9601,174.593,0.117729,0.0,0.0
516,128.75,22.3096,23.7841,154.965,100.028,98.8056,0.00121659,0.0491753,20.9602,174.623,0.111556,0.0,0.0
520,129.75,22.6172,23.6929,156.796,100.029,98.6983,0.00127094,0.049076,20.9602,174.643,0.121493,0.0,0.0
524,130.75,22.4808,23.5262,153.077,100.023,98.3944,0.00130863,0.049011,20.9602,174.673,0.148997,0.0,0.0
528,131.75,23.12,23.8382,151.876,100.034,98.3729,0.00133336,0.048906,20.9603,174.643,0.151971,0.0,0.0
532,132.75,22.5846,23.8702,152.501,100.036,98.5661,0.0013497,0.0488462,20.9603,174.603,0.134316,0.0,0.0
536,133.75,22.5703,24.1967,152.836,100.018,98.2793,0.001347,0.0488075,20.9603,174.583,0.159179,0.0,0.0
540,134.75,22.957,23.9445,154.943,100.027,98.2783,0.00130124,0.0487822,20.9603,174.563,0.160042,0.0,0.0
544,135.75,23.4091,24.2321,153.565,100.032,98.2612,0.00121795,0.0486602,20.9603,174.533,0.162061,0.0,0.0
548,136.75,22.7946,24.8905,155.943,100.031,98.2827,0.0011518,0.0485802,20.9603,174.543,0.160005,0.0,0.0
552,137.75,22.9462,24.1251,152.031,100.036,98.2154,0.00105714,0.0485772,20.9606,174.493,0.166627,0.0,0.0
556,138.75,23.5632,24.3784,153.213,100.034,98.4754,0.000969562,0.0486573,20.9608,174.473,0.142526,0.0,0.0
560,139.75,22.954,24.2775,154.645,100.04,98.229,0.000928508,0.0487362,20.961,174.463,0.165733,0.0,0.0
564,140.75,22.9197,24.19,156.102,100.051,97.611,0.000941582,0.0487298,20.9611,174.463,0.224002,0.0,0.0
568,141.75,23.1673,24.0314,154.004,100.041,97.9612,0.000999843,0.0487367,20.9612,174.483,0.190653,0.0,0.0
572,142.75,23.0732,24.1457,154.131,100.04,98.1178,0.00108327,0.0488319,20.9612,174.413,0.176088,0.0,0.0
576,143.75,22.8112,23.7623,152.137,100.056,97.6993,0.00116287,0.048984,20.9613,174.433,0.216277,0.0,0.0
580,144.75,23.2423,24.6294,155.497,100.053,98.1812,0.00122231,0.0492161,20.9613,174.373,0.171402,0.0,0.0
584,145.75,23.0798,24.5827,158.711,100.055,97.6139,0.00126325,0.049658,20.9615,174.373,0.224172,0.0,0.0
588,146.75,23.0957,24.3582,157.586,100.066,97.6724,0.0012809,0.0501348,20.9617,174.373,0.219652,0.0,0.0
592,147.75,23.3319,24.0652,153.388,100.06,98.0773,0.00127003,0.0505997,20.9619,174.323,0.181636,0.0,0.0
596,148.75,23.4862,24.1037,152.334,100.062,99.4778,0.00122899,0.0510018,20.962,174.353,0.0531222,0.0,1.0
600,149.75,23.0871,24.5852,150.755,100.072,99.9871,0.00121337,0.0513211,20.9621,174.303,0.00766848,0.0,1.0
604,150.75,23.6514,24.4969,145.509,100.074,100.006,0.00123928,0.0515813,20.9621,174.203,0.00617033,0.0,1.0
608,151.75,23.7251,25.2485,147.694,100.072,99.511,0.00130606,0.051866,20.9615,174.122,0.0510529,0.0,1.0
612,152.75,23.937,25.3475,142.543,100.095,99.5949,0.00139741,0.0523316,20.9609,174.072,0.0454286,0.0,1.0
616,153.75,22.7919,24.7614,145.38,100.085,99.1573,0.00147987,0.0528615,20.9606,174.002,0.0844641,0.0,1.0
620,154.75,23.11,25.1421,145.879,100.09,99.091,0.00155222,0.0535001,20.9603,173.902,0.0910528,0.0,0.0
624,155.75,23.5331,26.0631,140.278,100.089,99.1973,0.00160364,0.055537,20.9602,173.812,0.0812087,0.0,0.0
628,156.75,24.2671,26.4393,141.858,100.087,98.9666,0.00166087,0.0604667,20.9592,173.822,0.102193,0.0,0.0
632,157.75,24.633,28.0147,144.836,100.1,98.6895,0.00173218,0.0709007,20.9578,173.562,0.128812,0.0,0.0
636,158.75,25.496,28.7022,144.827,100.102,97.5007,0.00183796,0.0853746,20.9556,173.342,0.238966,0.0,0.0
640,159.75,26.0927,29.6116,140.54,100.105,97.8222,0.00193689,0.10434,20.9527,173.282,0.209354,0.0,0.0
644,160.75,26.7972,30.8432,136.169,100.104,98.0983,0.00200179,0.128151,20.9479,173.122,0.183631,0.0,0.0
648,161.75,27.1524,31.7341,135.751,100.104,97.8959,0.00205153,0.156981,20.9384,172.991,0.20245,0.0,0.0
652,162.75,28.3004,33.328,138.782,100.119,98.5149,0.00209325,0.188554,20.9242,172.861,0.146612,0.0,0.0
656,163.75,29.2125,34.2866,137.89,100.104,98.4968,0.00214224,0.21934,20.9013,172.691,0.146877,0.0,0.0
660,164.75,30.2683,35.3469,133.017,100.111,98.5944,0.00220834,0.246834,20.8674,172.561,0.138555,0.0,0.0
664,165.75,30.9974,36.8102,138.361,100.116,98.2812,0.0022845,0.275482,20.8318,172.401,0.167866,0.0,0.0
668,166.75,31.559,37.4102,135.689,100.109,98.4095,0.00237992,0.304357,20.7965,172.261,0.155366,0.0,0.0
672,167.75,32.3543,38.6702,134.946,100.104,98.7178,0.00246289,0.33188,20.7651,172.101,0.126506,0.0,0.0
676,168.75,33.2249,39.5671,139.427,100.109,98.1242,0.00258111,0.355591,20.7337,171.931,0.181718,0.0,0.0
680,169.75,33.7607,40.7129,137.128,100.103,98.4046,0.00272023,0.381283,20.7018,171.8,0.155302,0.0,0.0
684,170.75,35.3862,41.6187,140.819,100.096,98.3427,0.00284431,0.398354,20.6769,171.58,0.160391,0.0,0.0
688,171.75,35.5324,42.768,132.646,100.1,98.1803,0.00299064,0.41867,20.646,171.42,0.17576,0.0,0.0
692,172.75,36.3889,43.6754,134.358,100.099,98.3695,0.00313493,0.435216,20.6096,171.23,0.158135,0.0,0.0
696,173.75,36.9546,44.9691,133.318,100.09,98.4037,0.00326964,0.449647,20.5789,171.1,0.154214,0.0,0.0
700,174.75,37.5581,45.13,133.389,100.088,98.2198,0.00336916,0.462354,20.5536,170.91,0.170968,0.0,0.0
704,175.75,38.4498,46.3115,136.763,100.084,98.0261,0.00344743,0.473021,20.533,170.709,0.188546,0.0,0.0
708,176.75,39.3916,46.574,134.757,100.074,98.4895,0.00349204,0.48172,20.5156,170.539,0.144793,0.0,0.0
712,177.75,39.5919,48.078,136.032,100.064,98.6681,0.00350987,0.489455,20.4989,170.369,0.127474,0.0,0.0
716,178.75,40.9514,48.6241,133.497,100.061,97.5671,0.0035147,0.497215,20.4831,170.209,0.229041,0.0,0.0
720,179.75,41.1704,50.1928,136.871,100.046,97.7837,0.00351427,0.505193,20.4703,170.009,0.207558,0.0,0.0
724,180.75,41.8339,50.6375,132.598,100.04,97.6729,0.00352563,0.512553,20.459,169.869,0.217325,0.0,0.0
728,181.75,42.7813,50.8144,137.772,100.028,98.0251,0.00354314,0.520009,20.4502,169.679,0.183522,0.0,0.0
732,182.75,43.2159,51.9798,126.359,100.021,97.5007,0.00357464,0.526175,20.4411,169.528,0.231534,0.0,0.0
736,183.75,44.2895,52.1701,128.523,99.9925,97.7949,0.00359838,0.53153,20.4334,169.338,0.201659,0.0,0.0
740,184.75,44.2408,53.2319,129.051,99.9929,97.6271,0.00361937,0.537399,20.4255,169.138,0.21728,0.0,0.0
744,185.75,45.1805,54.1377,132.643,99.9653,98.0373,0.00364022,0.542729,20.4205,168.948,0.176723,0.0,0.0
748,186.75,45.5267,55.3404,132.756,99.9414,97.4037,0.00366959,0.550556,20.4134,168.788,0.233392,0.0,0.0
752,187.75,46.3205,55.8535,125.418,99.9329,97.8861,0.00370683,0.558397,20.4043,168.608,0.187785,0.0,0.0
756,188.75,47.1117,56.8567,124.472,99.9195,97.8759,0.00373536,0.565257,20.3953,168.407,0.187519,0.0,0.0
760,189.75,47.4013,57.3779,126.307,99.8907,97.5129,0.00375637,0.571899,20.3855,168.207,0.218612,0.0,0.0
764,190.75,48.1466,58.5218,129.706,99.8675,96.8027,0.0037864,0.579115,20.3763,168.007,0.282847,0.0,0.0
768,191.75,49.021,58.9878,137.121,99.8347,96.8929,0.00383575,0.587238,20.3679,167.827,0.271404,0.0,0.0
772,192.75,49.3019,59.9314,124.264,99.8063,96.9998,0.00390564,0.594415,20.3594,167.607,0.258823,0.0,0.0
776,193.75,49.7289,60.6948,130.022,99.7625,97.4227,0.0039923,0.602631,20.3506,167.397,0.215359,0.0,0.0
780,194.75,50.9042,61.301,125.324,99.747,96.4632,0.00409088,0.61073,20.3405,167.186,0.303773,0.0,0.0
784,195.75,51.5702,62.363,128.044,99.7024,96.8695,0.00418228,0.619015,20.3316,166.986,0.261568,0.0,0.0
788,196.75,52.2415,62.9863,128.796,99.6695,96.5841,0.00430198,0.626565,20.3231,166.766,0.285346,0.0,0.0
792,197.75,52.4537,63.9741,128.878,99.6748,96.9983,0.00438061,0.634724,20.3151,166.566,0.247,0.0,0.0
796,198.75,53.1974,65.0365,124.081,99.6931,96.7368,0.0044123,0.643562,20.3064,166.326,0.273155,0.0,0.0
800,199.75,54.2172,65.2147,125.46,99.717,96.9588,0.00441144,0.652713,20.2963,166.125,0.254538,0.0,0.0
804,200.75,54.5557,66.5376,131.534,99.7263,96.3412,0.00441157,0.661667,20.2863,165.915,0.31337,0.0,0.0
808,201.75,55.4071,66.9326,127.534,99.7361,96.2349,0.00443101,0.671202,20.2757,165.685,0.324277,0.0,0.0
812,202.75,55.8266,68.3898,123.902,99.7604,96.7778,0.0044561,0.679021,20.2659,165.515,0.275441,0.0,0.0
816,203.75,56.6803,68.7948,128.277,99.7758,96.4832,0.00448405,0.686966,20.2554,165.255,0.304512,0.0,0.0
820,204.75,57.3881,69.6246,125.282,99.7864,96.57,0.00449488,0.692961,20.2468,165.025,0.297308,0.0,0.0
824,205.75,57.9315,70.1208,123.795,99.8075,96.6963,0.00450309,0.701603,20.237,164.834,0.287363,0.0,0.0
828,206.75,59.1842,71.1289,123.314,99.8335,96.2758,0.00451718,0.710065,20.2283,164.574,0.32927,0.0,0.0
832,207.75,59.0869,71.7438,120.874,99.8533,96.2622,0.00452643,0.719681,20.2202,164.354,0.332364,0.0,0.0
836,208.75,60.0385,72.9624,118.549,99.872,96.1978,0.00458074,0.729942,20.2121,164.114,0.340132,0.0,0.0
840,209.75,60.4487,73.9586,114.558,99.913,95.4832,0.0046278,0.739042,20.2017,163.873,0.411518,0.0,0.0
844,210.75,61.5177,75.1363,122.506,99.9178,96.4232,0.00468044,0.746307,20.1921,163.663,0.323063,0.0,0.0
848,211.75,61.9171,75.2929,118.711,99.9438,96.5402,0.00474627,0.756536,20.1821,163.403,0.31441,0.0,0.0
852,212.75,62.5419,76.2935,118.297,99.9576,95.8934,0.00482012,0.767106,20.1714,163.173,0.376666,0.0,0.0
856,213.75,63.098,76.7938,113.466,99.986,95.8256,0.00489911,0.777344,20.1612,162.923,0.385662,0.0,0.0
860,214.75,63.7716,77.8419,119.884,100.005,96.0441,0.00497369,0.785878,20.1489,162.712,0.366759,0.0,0.0
864,215.75,64.456,78.5913,124.041,100.036,96.4568,0.00505767,0.793576,20.1351,162.452,0.330576,0.0,0.0
868,216.75,65.1299,79.0773,126.552,100.058,96.6627,0.00515041,0.800246,20.122,162.192,0.313291,0.0,0.0
872,217.75,65.6358,79.9057,123.811,100.089,95.5817,0.00524763,0.80636,20.1121,161.942,0.418137,0.0,0.0
876,218.75,65.9315,80.4407,123.228,100.111,95.9163,0.00531993,0.813081,20.1036,161.682,0.388409,0.0,0.0
880,219.75,66.8713,80.9252,128.322,100.146,95.8485,0.00536513,0.819248,20.0951,161.441,0.398025,0.0,0.0
884,220.75,67.0521,81.6628,113.672,100.174,95.5188,0.00539508,0.825322,20.0868,161.171,0.431835,0.0,0.0
888,221.75,67.8025,81.8324,118.434,100.2,94.7324,0.00542382,0.832001,20.0785,160.941,0.509199,0.0,0.0
892,222.75,68.2316,82.9032,124.459,100.233,95.3588,0.00547847,0.83932,20.0706,160.681,0.452339,0.0,0.0
896,223.75,69.0716,83.5487,122.747,100.26,95.5436,0.00555366,0.846652,20.0638,160.461,0.43726,0.0,0.0
900,224.75,69.1994,84.6854,121.972,100.285,95.528,0.00566315,0.852935,20.0572,160.19,0.440982,0.0,0.0
904,225.75,70.2193,84.8198,118.881,100.317,94.5705,0.00578948,0.857208,20.0496,159.95,0.535266,0.0,0.0
908,226.75,70.426,85.3225,123.747,100.341,95.5973,0.00590641,0.861633,20.0414,159.69,0.43947,0.0,0.0
912,227.75,70.581,86.0584,122.795,100.359,95.3822,0.00600412,0.866512,20.0332,159.44,0.461565,0.0,0.0
916,228.75,71.2437,86.1735,117.232,100.393,95.4758,0.00607033,0.873371,20.027,159.179,0.455703,0.0,0.0
920,229.75,71.6916,86.9045,124.482,100.416,94.7627,0.00609919,0.880814,20.0223,158.929,0.525829,0.0,0.0
924,230.75,72.4813,87.1879,126.508,100.436,95.2714,0.00610673,0.886026,20.0166,158.639,0.479073,0.0,0.0
928,231.75,72.7393,87.735,119.918,100.461,95.1427,0.00607712,0.890246,20.0113,158.369,0.493583,0.0,0.0
932,232.75,73.5892,88.5911,122.881,100.477,94.7783,0.0060246,0.894454,20.0055,158.128,0.529796,0.0,0.0
936,233.75,73.5361,89.0722,116.524,100.49,94.5788,0.0059961,0.899081,19.9985,157.908,0.550164,0.0,0.0
940,234.75,74.6004,89.8788,125.832,100.511,94.3036,0.00602089,0.902824,19.9923,157.628,0.578504,0.0,0.0
944,235.75,74.2963,90.3379,123.168,100.521,93.9744,0.00610676,0.905397,19.9857,157.408,0.611122,0.0,0.0
948,236.75,75.3796,90.4651,116.363,100.545,94.5002,0.00623889,0.907854,19.9782,157.128,0.562611,0.0,0.0
952,237.75,75.2139,90.6898,117.917,100.541,95.0592,0.00637004,0.910687,19.9733,156.877,0.508796,0.0,0.0
956,238.75,75.6843,90.8289,121.294,100.554,95.6739,0.00648171,0.913203,19.9692,156.637,0.45141,0.0,0.0
960,239.75,76.1051,91.2281,121.221,100.554,95.2729,0.00655795,0.91445,19.9655,156.397,0.489521,0.0,0.0
964,240.75,76.7166,91.7201,123.359,100.568,94.6524,0.00659452,0.91403,19.962,156.157,0.550131,0.0,0.0
968,241.75,76.7153,92.4372,119.857,100.576,95.2368,0.00660763,0.913666,19.9583,155.866,0.494973,0.0,0.0
972,242.75,76.685,92.0427,118.073,100.563,94.3792,0.00661685,0.913842,19.9559,155.606,0.575881,0.0,0.0
976,243.75,77.1431,92.7879,123.537,100.556,94.427,0.0066295,0.912931,19.9535,155.376,0.570665,0.0,0.0
980,244.75,77.2722,92.547,120.975,100.55,94.6661,0.00663779,0.910845,19.9528,155.136,0.547212,0.0,0.0
984,245.75,77.6542,92.5581,127.326,100.555,95.2212,0.00666414,0.908279,19.9523,154.876,0.494594,0.0,0.0
988,246.75,77.7707,92.3856,122.251,100.548,94.651,0.00670707,0.905769,19.9519,154.645,0.548404,0.0,0.0
992,247.75,77.6781,92.785,120.073,100.531,92.7983,0.00677003,0.90327,19.9536,154.385,0.726249,0.0,0.0
996,248.75,78.0571,92.9533,115.889,100.523,94.2729,0.00683884,0.90053,19.9557,154.205,0.582525,0.0,0.0
1000,249.75,78.0286,92.4603,123.671,100.509,93.5134,0.00691889,0.897626,19.9577,153.935,0.654682,0.0,0.0
1004,250.75,78.1211,93.0009,118.956,100.492,94.8641,0.0069891,0.892394,19.9598,153.725,0.522972,0.0,0.0
1008,251.75,77.9304,92.8747,126.2,100.473,93.9778,0.0070435,0.887016,19.9617,153.534,0.606433,0.0,0.0
1012,252.75,78.2518,92.5398,128.778,100.441,93.1802,0.0070466,0.880929,19.9643,153.304,0.680878,0.0,0.0
1016,253.75,77.9301,92.3411,125.548,100.413,93.5134,0.00703213,0.874541,19.9663,153.084,0.64596,0.0,0.0
1020,254.75,77.9737,92.0485,126.488,100.386,94.5153,0.00701211,0.868049,19.9716,152.924,0.546793,0.0,0.0
1024,255.75,77.7195,91.6499,123.882,100.355,94.0368,0.00698277,0.86006,19.9774,152.704,0.590066,0.0,0.0
1028,256.75,77.8582,91.6932,127.486,100.321,90.6129,0.0069609,0.85071,19.9853,152.514,0.92355,0.0,0.0
1032,257.75,77.8675,90.8916,126.158,100.278,92.1514,0.00694549,0.840331,19.9945,152.303,0.766875,0.0,0.0
1036,258.75,77.2614,90.4272,133.132,100.26,92.1714,0.00692879,0.829476,20.0046,152.143,0.763327,0.0,0.0
1040,259.75,77.3383,89.8376,133.787,100.218,91.6734,0.00693799,0.819429,20.0143,151.913,0.808711,0.0,0.0
1044,260.75,76.667,89.9376,129.154,100.198,92.0387,0.00697002,0.810269,20.0246,151.693,0.77078,0.0,0.0
1048,261.75,76.4621,88.9929,131.973,100.145,91.9173,0.00703858,0.79903,20.0366,151.503,0.777948,0.0,0.0
1052,262.75,76.4854,88.3555,133.089,100.115,92.4802,0.00714462,0.786713,20.0486,151.282,0.719786,0.0,0.0
1056,263.75,75.6743,87.8669,131.343,100.074,93.3602,0.00726511,0.77449,20.0587,151.082,0.630205,0.0,0.0
1060,264.75,75.7216,87.9463,132.556,100.033,94.3422,0.00742835,0.762071,20.0709,150.852,0.53147,0.0,0.0
1064,265.75,74.8656,86.6307,127.122,99.9945,94.7095,0.00761166,0.751164,20.0855,150.672,0.492747,0.0,0.0
1068,266.75,75.2216,87.0498,131.599,99.9548,95.5993,0.00787026,0.740168,20.0968,150.442,0.404286,0.0,0.0
1072,267.75,74.9405,86.4312,131.082,99.9292,94.7841,0.00812507,0.730207,20.1092,150.222,0.479669,0.0,0.0
1076,268.75,74.7286,86.2588,134.366,99.8757,95.2012,0.00834794,0.722459,20.1221,150.031,0.434963,0.0,0.0
1080,269.75,74.1398,85.7052,131.425,99.8326,94.7846,0.00850411,0.716165,20.1374,149.821,0.470849,0.0,0.0
1084,270.75,74.3196,85.2234,132.731,99.7913,94.7539,0.00858894,0.711545,20.1493,149.621,0.470029,0.0,0.0
1088,271.75,74.0603,84.838,132,99.7523,94.287,0.00863104,0.709121,20.1595,149.441,0.511305,0.0,0.0
1092,272.75,73.7213,84.5049,132.552,99.7203,94.8412,0.00865132,0.709485,20.1671,149.291,0.455212,0.0,0.0
1096,273.75,73.9637,84.1664,135.083,99.6817,94.2841,0.00868808,0.71034,20.1728,149.141,0.505162,0.0,0.0
1100,274.75,73.337,83.4797,131.388,99.6687,93.4768,0.00877324,0.711046,20.1765,149.02,0.582015,0.0,0.0
1104,275.75,73.0554,83.2584,133.141,99.6127,93.7402,0.00892472,0.71142,20.178,148.85,0.55138,0.0,0.0
1108,276.75,72.3324,82.5021,136.9,99.586,93.6022,0.00919295,0.711451,20.1783,148.7,0.562315,0.0,0.0
1112,277.75,71.9938,81.5213,138.385,99.5434,95.3578,0.00940339,0.710583,20.1785,148.59,0.389808,0.0,0.0
1116,278.75,71.5508,80.7048,141.487,99.5129,96.7622,0.0097777,0.707153,20.1786,148.58,0.254364,0.0,0.0
1120,279.75,71.0791,79.5752,143.634,99.4634,97.8334,0.0101441,0.698817,20.1785,148.53,0.149942,0.0,0.0
1124,280.75,69.9753,78.8465,140.816,99.4375,98.8398,0.01045,0.690297,20.1785,148.42,0.0547083,0.0,0.0
1128,281.75,69.1873,77.2853,148.583,99.4107,99.5905,0.0106989,0.671419,20.179,148.39,-0.0164,0.0,0.0
1132,282.75,68.4077,75.8966,151.528,99.3802,99.6393,0.0108065,0.647286,20.1829,148.34,-0.0236214,0.0,0.0
1136,283.75,67.2313,75.0318,142.839,99.3498,99.9369,0.0107695,0.615148,20.1921,148.32,-0.0534595,0.0,0.0
1140,284.75,66.3308,73.6329,144.331,99.3166,100.051,0.0104591,0.579776,20.2059,148.31,-0.0668573,0.0,0.0
1144,285.75,65.7136,72.0572,149.156,99.2817,99.849,0.00991263,0.541792,20.2258,148.29,-0.0517116,0.0,0.0
1148,286.75,64.7089,70.3658,150.828,99.2492,99.9666,0.00915224,0.4959,20.2583,148.25,-0.0653563,0.0,0.0
1152,287.75,63.6057,68.9841,148.977,99.2147,99.7198,0.00843961,0.450735,20.2974,148.22,-0.0460763,0.0,0.0
1156,288.75,62.2497,68.4314,150.473,99.1952,99.9481,0.00750946,0.402005,20.3428,148.19,-0.0686087,0.0,0.0
1160,289.75,62.2121,67.3984,148.094,99.1603,99.9012,0.00693639,0.365364,20.3816,148.15,-0.0675487,0.0,0.0
1164,290.75,61.0897,65.9139,147.683,99.1287,99.6125,0.00625404,0.321566,20.4379,148.12,-0.0441765,0.0,0.0
1168,291.75,59.9184,64.4315,148.234,99.1238,99.4856,0.00577641,0.28464,20.493,148.13,-0.0330609,0.0,0.0
1172,292.75,59.3832,63.2778,150.415,99.08,99.6208,0.00552477,0.252434,20.5452,148.13,-0.0493897,0.0,0.0
1176,293.75,58.1664,62.9526,152.328,99.0626,99.6412,0.0054799,0.228466,20.5956,148.1,-0.0528535,0.0,0.0
1180,294.75,57.8556,61.0702,153.839,99.039,99.5154,0.00553551,0.205911,20.644,148.07,-0.0435412,0.0,0.0
1184,295.75,56.5603,60.5673,149.426,99.0236,99.6695,0.00571141,0.187195,20.682,148.07,-0.0589987,0.0,0.0
1188,296.75,56.5621,59.8647,144.251,98.994,99.7715,0.00602163,0.172391,20.7147,148.06,-0.0709911,0.0,0.0
1192,297.75,55.8314,59.0011,153.215,98.977,99.7315,0.00641121,0.159998,20.7468,148.05,-0.0689138,0.0,0.0
1196,298.75,54.5823,57.8618,147.355,98.9554,99.7481,0.00685101,0.150391,20.7747,148.03,-0.0723949,0.0,0.0
1200,299.75,54.4342,57.1136,148.26,98.9388,99.5222,0.00734297,0.142725,20.7973,147.99,-0.0533502,0.0,0.0
1204,300.75,53.8921,56.4173,150.473,98.9218,99.711,0.00778583,0.138116,20.8101,148,-0.0721097,0.0,0.0
1208,301.75,52.3972,55.529,147.729,98.8999,99.4929,0.00819553,0.132942,20.8233,147.99,-0.0542539,0.0,0.0
1212,302.75,51.7278,55.0728,151.268,98.8946,99.5193,0.00901141,0.128782,20.8333,147.99,-0.0571409,0.0,0.0
1216,303.75,51.7307,54.1044,151.312,98.8747,99.4871,0.00977086,0.123793,20.8405,147.98,-0.056029,0.0,0.0
1220,304.75,51.1482,53.2208,156.203,98.8711,99.5315,0.0104813,0.119215,20.8457,147.97,-0.0604116,0.0,0.0
1224,305.75,48.6799,51.0485,150.828,98.8508,99.4525,0.0111406,0.11537,20.8507,147.95,-0.0550663,0.0,0.0
1228,306.75,48.1942,50.1902,151.369,98.8354,99.4461,0.0116927,0.111715,20.8566,147.94,-0.0559033,0.0,0.0
1232,307.75,47.6786,49.4696,150.389,98.8297,99.5934,0.0123145,0.108295,20.8624,147.93,-0.0698573,0.0,0.0
1236,308.75,47.2334,48.9463,150.914,98.8317,99.4915,0.0128877,0.105268,20.867,147.93,-0.0603773,0.0,0.0
1240,309.75,46.0637,48.6132,151.2,98.8106,99.1817,0.0134745,0.102782,20.8708,147.92,-0.0340185,0.0,0.0
1244,310.75,45.9015,47.8136,147.898,98.8118,99.5466,0.0141169,0.100221,20.8743,147.869,-0.0672289,0.0,0.0
1248,311.75,45.8202,47.443,151.492,98.8171,99.2993,0.0147371,0.0977321,20.8787,147.869,-0.0441716,0.0,0.0
1252,312.75,45.194,47.1844,147.201,98.8021,99.2861,0.015387,0.0952861,20.8821,147.869,-0.0443466,0.0,0.0
1256,313.75,44.6507,46.495,149.191,98.7984,99.4798,0.0160692,0.0932259,20.8848,147.859,-0.0623648,0.0,0.0
1260,314.75,44.5899,45.801,152.523,98.7895,99.5315,0.0168385,0.0914732,20.8869,147.849,-0.0679002,0.0,0.0
1264,315.75,43.8312,44.8271,153.422,98.7871,99.2461,0.0175359,0.0901969,20.8883,147.829,-0.042069,0.0,0.0
1268,316.75,43.9773,44.9494,150.79,98.7948,99.3598,0.0182974,0.089119,20.8908,147.819,-0.051747,0.0,0.0
1272,317.75,43.4327,44.322,150.866,98.8049,99.3525,0.0190319,0.0880968,20.8924,147.789,-0.0501473,0.0,0.0
1276,318.75,42.9628,44.0995,152.214,98.7863,99.1842,0.0196155,0.0872523,20.8935,147.759,-0.0364771,0.0,0.0
1280,319.75,42.5432,42.9338,151.386,98.7863,99.331,0.0200331,0.086558,20.8942,147.739,-0.0499015,0.0,0.0
1284,320.75,42.0892,43.4534,150.867,98.7988,99.1061,0.0202934,0.086068,20.8947,147.719,-0.0281782,0.0,0.0
1288,321.75,41.232,42.5343,149.437,98.7923,99.3403,0.0204331,0.0857086,20.895,147.689,-0.0501881,0.0,0.0
1292,322.75,41.3663,42.1885,147.28,98.7976,99.2144,0.0204941,0.0853661,20.8955,147.689,-0.0382004,0.0,0.0
1296,323.75,41.0981,41.7697,149.546,98.7968,99.3495,0.0205052,0.0851624,20.8963,147.679,-0.0506248,0.0,0.0
1300,324.75,40.9772,41.5519,155.646,98.8114,99.2934,0.0204879,0.0850344,20.8969,147.679,-0.0441586,0.0,0.0
1304,325.75,40.4209,41.3989,149.381,98.811,99.1978,0.0204642,0.0848437,20.8976,147.659,-0.0354541,0.0,0.0
1308,326.75,40.2172,40.5921,149.854,98.8142,99.4315,0.0204394,0.0848447,20.8988,147.629,-0.0565057,0.0,0.0
1312,327.75,39.2766,40.8141,149.171,98.8354,99.1598,0.0204264,0.0848941,20.8996,147.619,-0.0297366,0.0,0.0
1316,328.75,39.5411,39.7653,149.29,98.8248,99.1666,0.0204206,0.0849679,20.9002,147.619,-0.0313305,0.0,0.0
1320,329.75,39.0278,40.2701,152.172,98.8362,99.3115,0.020415,0.0851435,20.9005,147.619,-0.0435352,0.0,0.0
1324,330.75,39.1037,39.7393,148.02,98.8386,99.2442,0.0204089,0.0853578,20.9007,147.619,-0.0371592,0.0,0.0
1328,331.75,39.3988,39.2881,148.442,98.8512,99.5378,0.0204322,0.0855363,20.9009,147.599,-0.0628147,0.0,0.0
1332,332.75,38.6411,38.9972,148.956,98.8601,99.3256,0.0204842,0.0856379,20.901,147.589,-0.0426298,0.0,0.0
1336,333.75,38.1813,38.8353,152.684,98.8637,99.3217,0.0205515,0.0856667,20.9011,147.569,-0.0419391,0.0,0.0
1340,334.75,38.1167,38.5538,148.444,98.8694,99.3398,0.0206163,0.0855788,20.9011,147.569,-0.0430656,0.0,0.0
1344,335.75,38.0759,38.3618,156.257,98.8731,99.1549,0.0206698,0.0855478,20.9011,147.549,-0.0258266,0.0,0.0
1348,336.75,37.3944,38.3395,148.153,98.878,99.3529,0.020705,0.085439,20.9011,147.539,-0.0434868,0.0,0.0
1352,337.75,37.2616,37.8039,151.283,98.8844,99.3768,0.0207032,0.0852649,20.9012,147.529,-0.0450739,0.0,0.0
1356,338.75,37.0763,37.6591,146.81,98.8999,99.2032,0.0207065,0.0851152,20.9012,147.539,-0.0277881,0.0,0.0
1360,339.75,37.0252,37.8611,149.541,98.9128,99.2827,0.0207308,0.0850301,20.9012,147.529,-0.0338676,0.0,0.0
1364,340.75,37.0201,37.4801,151.654,98.9059,99.3242,0.0207858,0.0849743,20.9012,147.509,-0.0382889,0.0,0.0
1368,341.75,36.6296,37.3939,148.203,98.9169,99.2246,0.0208282,0.0848843,20.9012,147.529,-0.028188,0.0,0.0
1372,342.75,36.2361,36.7892,150.596,98.91,99.371,0.0208306,0.0847719,20.9012,147.509,-0.0421945,0.0,0.0
1376,343.75,35.7122,36.6331,151.723,98.9222,99.4417,0.0208265,0.0848189,20.9012,147.499,-0.0475349,0.0,0.0
1380,344.75,35.8932,36.8843,149.067,98.9291,99.3471,0.0207284,0.0848182,20.9012,147.499,-0.0382618,0.0,0.0
1384,345.75,35.4611,36.1991,149.663,98.9348,99.4144,0.020619,0.0847345,20.9012,147.489,-0.0438874,0.0,0.0
1388,346.75,35.9663,35.7488,153.468,98.9421,99.5739,0.0205312,0.0845332,20.901,147.469,-0.0577663,0.0,0.0
1392,347.75,35.8467,36.1708,149.279,98.9433,99.5876,0.0204979,0.0843255,20.9008,147.449,-0.0588991,0.0,0.0
1396,348.75,34.6018,36.1345,151.766,98.9648,99.4295,0.0204828,0.0842776,20.9006,147.439,-0.0425146,0.0,0.0
1400,349.75,34.9076,35.343,151.045,98.9563,99.4173,0.0205349,0.0843412,20.9016,147.429,-0.0421826,0.0,0.0
1404,350.75,35.0519,35.9389,147.783,98.9709,99.4622,0.0205939,0.0844396,20.9025,147.429,-0.0449385,0.0,0.0
1408,351.75,34.8431,35.2801,150.736,98.9761,99.5305,0.0206312,0.0844508,20.9031,147.419,-0.0506836,0.0,0.0
1412,352.75,34.5301,35.1098,155.968,98.9814,99.7051,0.0206519,0.0845213,20.9032,147.399,-0.0661076,0.0,0.0
1416,353.75,34.6195,34.8718,148.542,99.0037,99.571,0.0206603,0.0847106,20.9027,147.389,-0.0518449,0.0,0.0
1420,354.75,34.6165,35.3056,151.247,99.0021,99.2934,0.0206451,0.0846585,20.9024,147.369,-0.0266625,0.0,0.0
1424,355.75,34.5055,34.45,149.06,99.0305,99.4027,0.0206155,0.0844627,20.9022,147.349,-0.0340408,0.0,0.0
1428,356.75,34.0831,34.5488,157.036,99.0265,99.4651,0.0205758,0.0843663,20.9029,147.339,-0.0401109,0.0,0.0
1432,357.75,33.5479,34.2979,154.621,99.02,99.5998,0.0205567,0.0843705,20.9035,147.349,-0.0529797,0.0,0.0
1436,358.75,33.8811,34.0269,151.334,99.0411,99.3056,0.0205651,0.0844081,20.904,147.339,-0.0242081,0.0,0.0
1440,359.75,33.6972,33.6115,154.123,99.0451,99.4925,0.0206122,0.0844748,20.9044,147.319,-0.0408921,0.0,0.0
1444,360.75,33.87,33.9617,155.512,99.0573,99.5861,0.0206624,0.0845833,20.9046,147.309,-0.0483152,0.0,0.0
1448,361.75,33.7188,33.9127,150.6,99.0658,99.5632,0.0206935,0.0845744,20.9048,147.289,-0.0454457,0.0,0.0
1452,362.75,32.7209,33.5631,153.113,99.0837,99.5588,0.0207106,0.0845152,20.9049,147.279,-0.0434107,0.0,0.0
1456,363.75,32.6406,33.1415,151.31,99.0966,99.351,0.0207081,0.0844763,20.9049,147.249,-0.0232608,0.0,0.0
1460,364.75,32.5025,33.2516,150.97,99.1096,99.4203,0.0206687,0.0843457,20.905,147.239,-0.0283963,0.0,0.0
1464,365.75,32.7165,32.703,151.332,99.1141,99.569,0.0205778,0.0842465,20.905,147.229,-0.0415571,0.0,0.0
1468,366.75,32.3066,33.164,147.967,99.1234,99.53,0.0204143,0.0841933,20.905,147.219,-0.0371456,0.0,0.0
1472,367.75,32.2153,32.6758,152.872,99.1478,99.5964,0.0202204,0.0841584,20.905,147.189,-0.0409638,0.0,0.0
1476,368.75,32.3296,32.5763,157.159,99.1401,99.3134,0.0200142,0.0841588,20.905,147.199,-0.0158554,0.0,0.0
1480,369.75,32.7523,33.181,152.327,99.1603,99.6017,0.0198296,0.0841848,20.9051,147.189,-0.0403021,0.0,0.0
1484,370.75,32.3959,32.8623,150.68,99.1749,99.4242,0.0196988,0.0841262,20.9051,147.169,-0.0227738,0.0,0.0
1488,371.75,32.2724,32.6516,151.835,99.1883,99.6734,0.0196103,0.0841024,20.9051,147.169,-0.0442711,0.0,0.0
1492,372.75,32.1667,32.4617,150.425,99.1989,99.6398,0.0196339,0.0840988,20.9044,147.149,-0.0402407,0.0,0.0
1496,373.75,32.0708,32.2259,145.844,99.2058,99.61,0.0197162,0.0840697,20.904,147.139,-0.0368996,0.0,0.0
1500,374.75,32.6852,31.8663,152.295,99.2265,99.5964,0.0198122,0.0839973,20.9041,147.119,-0.0337628,0.0,0.0
1504,375.75,32.0054,32.1499,152.041,99.2386,99.6466,0.0199255,0.0840832,20.9041,147.109,-0.0372271,0.0,0.0
1508,376.75,32.1353,31.8387,153.439,99.2512,99.771,0.0200339,0.0840862,20.9041,147.099,-0.0473974,0.0,0.0
1512,377.75,31.6945,32.3179,153.979,99.2646,99.832,0.0201438,0.083962,20.9042,147.099,-0.051717,0.0,0.0
1516,378.75,31.7605,32.2228,152.446,99.2768,99.5383,0.0202334,0.0837435,20.9042,147.099,-0.0238725,0.0,0.0
1520,379.75,31.2732,31.6062,150.996,99.2837,99.5378,0.0202766,0.0835165,20.9042,147.099,-0.0231979,0.0,0.0
1524,380.75,31.8875,31.4808,149.487,99.2942,99.7847,0.0202652,0.0834476,20.9042,147.089,-0.0447081,0.0,0.0
1528,381.75,31.2765,31.7887,150.531,99.3084,99.6871,0.0202071,0.0834825,20.9042,147.089,-0.0345338,0.0,0.0
1532,382.75,31.2115,31.3742,149.416,99.3137,99.6705,0.0201499,0.0835586,20.9042,147.069,-0.0325414,0.0,0.0
1536,383.75,30.7811,31.3221,149.412,99.3247,99.8544,0.0201344,0.0835456,20.9042,147.049,-0.048269,0.0,0.0
1540,384.75,31.1087,31.4176,149.766,99.3198,99.6705,0.0201554,0.083457,20.9042,147.029,-0.0319861,0.0,0.0
1544,385.75,31.5064,31.2864,149.69,99.3299,99.7525,0.0201989,0.0834261,20.9042,147.009,-0.038517,0.0,0.0
1548,386.75,31.1193,31.0319,151.75,99.334,99.6368,0.0202449,0.083496,20.9042,146.979,-0.0276238,0.0,0.0
1552,387.75,30.6109,31.4744,151.539,99.3324,99.9359,0.0202752,0.0836742,20.9042,146.969,-0.0549651,0.0,0.0
1556,388.75,31.0173,31.3608,150.572,99.3527,99.7466,0.0202834,0.0839005,20.9043,146.969,-0.0359097,0.0,0.0
1560,389.75,31.0859,31.2908,154.393,99.3462,99.9539,0.0202583,0.0839956,20.9046,146.959,-0.0553433,0.0,0.0
1564,390.75,30.9612,30.702,149.28,99.3563,99.7466,0.0202072,0.0839779,20.9045,146.949,-0.0355757,0.0,0.0
1568,391.75,30.4258,30.6414,151.726,99.3539,99.7003,0.0201283,0.0837772,20.9039,146.919,-0.0315818,0.0,0.0
1572,392.75,30.5578,30.4824,151.255,99.3677,99.8105,0.0200578,0.0835315,20.9035,146.879,-0.0403499,0.0,0.0
1576,393.75,30.4741,30.6731,151.856,99.3725,99.8564,0.019967,0.0834271,20.9032,146.819,-0.0440732,0.0,0.0
1580,394.75,30.6699,30.2598,152.232,99.3734,99.9178,0.0198976,0.0834182,20.903,146.829,-0.0495828,0.0,0.0
1584,395.75,30.5698,30.4868,155.745,99.3847,99.6154,0.0198684,0.0834755,20.9028,146.789,-0.0210367,0.0,0.0
1588,396.75,30.1911,30.7022,152.156,99.3981,99.6661,0.0198789,0.0834233,20.9025,146.779,-0.0244348,0.0,0.0
1592,397.75,30.024,30.1205,154.987,99.3904,99.8554,0.0199091,0.083305,20.9028,146.759,-0.0423543,0.0,0.0
1596,398.75,29.9825,29.9252,156.174,99.3965,99.6725,0.0199532,0.0831591,20.9031,146.789,-0.0251605,0.0,0.0
1600,399.75,29.9639,30.35,152.447,99.4022,99.6427,0.0199822,0.0829823,20.9029,146.748,-0.0219323,0.0,0.0
1604,400.75,29.8227,29.8996,154.558,99.4095,99.9017,0.0199808,0.0828627,20.9029,146.698,-0.0448238,0.0,0.0
1608,401.75,29.5339,29.7195,150.07,99.4103,99.851,0.0199613,0.0826469,20.9028,146.728,-0.0401407,0.0,0.0
1612,402.75,28.9868,29.3762,149.286,99.4208,99.8427,0.0199156,0.0824771,20.9027,146.678,-0.0384247,0.0,0.0
1616,403.75,29.3685,29.6144,150.781,99.4269,99.7515,0.019849,0.0822817,20.9027,146.688,-0.0295738,0.0,0.0
1620,404.75,29.0689,29.167,151.71,99.4306,99.7549,0.0197647,0.0820278,20.9035,146.668,-0.0295515,0.0,0.0
1624,405.75,30.0343,29.7582,157.67,99.4395,99.7417,0.0196781,0.0817778,20.904,146.688,-0.027538,0.0,0.0
1628,406.75,29.0375,29.6879,154.52,99.4366,99.9325,0.0196091,0.0817462,20.9044,146.668,-0.0451342,0.0,0.0
1632,407.75,29.4848,29.4908,151.086,99.4492,99.8895,0.019591,0.0819259,20.9046,146.668,-0.0400875,0.0,0.0
1636,408.75,29.416,29.413,146.605,99.4464,99.951,0.019611,0.0822707,20.9047,146.668,-0.0459284,0.0,0.0
1640,409.75,29.282,29.7378,149.404,99.4504,99.6612,0.0196442,0.082491,20.9046,146.638,-0.0192142,0.0,0.0
1644,410.75,29.0878,28.6832,154.756,99.4845,99.8764,0.0196973,0.0826107,20.9039,146.658,-0.0356702,0.0,0.0
1648,411.75,28.8567,29.4002,154.105,99.4561,99.7637,0.0197398,0.0826133,20.9035,146.628,-0.0280182,0.0,0.0
1652,412.75,28.9936,29.4902,148.81,99.4728,99.669,0.0197787,0.0826571,20.9032,146.648,-0.0178886,0.0,0.0
1656,413.75,29.1487,29.3223,153.412,99.4724,99.8115,0.0198183,0.0826529,20.903,146.668,-0.0308849,0.0,0.0
1660,414.75,29.405,29.5363,148.997,99.4813,99.8656,0.0198676,0.0825989,20.9029,146.648,-0.034992,0.0,0.0
1664,415.75,28.7471,29.6197,150.954,99.4724,99.8461,0.0199013,0.0825101,20.9028,146.658,-0.0340326,0.0,0.0
1668,416.75,28.6025,28.9272,153.762,99.4882,99.8998,0.0199098,0.0824062,20.9028,146.678,-0.0374644,0.0,0.0
1672,417.75,29.163,29.1842,151.186,99.5093,99.8978,0.0199,0.0823192,20.9027,146.648,-0.0353634,0.0,0.0
1676,418.75,28.7681,29.1697,148.786,99.5072,99.8666,0.0198904,0.0823505,20.9027,146.618,-0.0327118,0.0,0.0
1680,419.75,29.3604,29.3589,152.466,99.5275,99.7607,0.0198669,0.0824279,20.9029,146.608,-0.0212384,0.0,0.0
1684,420.75,28.9813,28.8923,152.843,99.5393,99.9895,0.0198637,0.0824667,20.9031,146.608,-0.0409524,0.0,0.0
1688,421.75,28.2425,29.1078,149.957,99.5324,99.8847,0.019874,0.0824389,20.9033,146.618,-0.0320578,0.0,0.0
1692,422.75,28.6588,29.1797,153.516,99.5478,100.014,0.0198914,0.0824836,20.9034,146.598,-0.0423885,0.0,0.0
1696,423.75,28.3081,29.1795,153.271,99.5576,100.069,0.019906,0.0826771,20.9034,146.608,-0.0464568,0.0,0.0
1698,424.25,28.1216,29.2573,149.252,99.5701,100.209,0.0199132,0.0827613,20.9034,146.598,-0.0579965,0.0,0.0