File: 01_Data/Masonite_Board/Cone/Masonite_Cone_HF50Scan_230105_R6.csv
Names,Time,Stack TC,Smoke TC,Exh Press,Smoke Comp,Smoke Meas,CO Meter,CO2 Meter,O2 Meter,Sample Mass,Ext Coeff,Start Test,Flame Verif
Chan Gain,,500,500,1,1,1,1,1,1,1,1,1.0,1.0
Offset,,0,0,0.131978,0,0,0,0,0,0,0,0.0,0.0
Gain,,1,1,25.011,13.5924,14.2928,1,1,1,1.00089,1.02125,1.0,1.0
Units,sec,C,C,Pa,%,%,%,%,%,g,/m,,
Baseline,,33.0839,33.8312,156.528,101.062,100.95,0.000829571,0.0465239,20.9354,-450.073,0.0099258,,
4,0.75,30.5949,31.683,153.651,100.964,100.792,0.000914774,0.0513136,20.9303,172.474,0.015319,0.0,0.0
8,1.75,30.7405,31.1539,156.817,100.962,100.81,0.000940897,0.0507521,20.9311,172.474,0.0134702,0.0,0.0
12,2.75,30.3111,31.4536,156.078,100.962,100.792,0.000942251,0.0503177,20.9327,172.564,0.0150962,0.0,0.0
16,3.75,30.6634,31.4314,156.569,100.951,100.809,0.000913615,0.0499529,20.9337,172.574,0.0126299,0.0,0.0
20,4.75,30.5723,31.2593,158.26,100.969,100.771,0.000869382,0.0496451,20.9344,172.564,0.0175852,0.0,0.0
24,5.75,30.6154,31.385,156.07,100.957,100.81,0.000819168,0.0493886,20.9348,172.464,0.0130671,0.0,0.0
28,6.75,31.1084,31.7439,157.855,100.97,100.753,0.000780522,0.0490925,20.9351,172.484,0.0192467,0.0,0.0
32,7.75,30.6023,31.0127,156.307,100.956,100.778,0.000748444,0.0486978,20.9357,172.444,0.0158243,0.0,0.0
36,8.75,30.7306,31.802,157.72,100.958,100.76,0.000725156,0.0481574,20.9362,172.404,0.0175607,0.0,0.0
40,9.75,30.3314,31.0831,152.828,100.963,100.743,0.000700917,0.0477085,20.9366,172.364,0.0194769,0.0,0.0
44,10.75,30.9625,31.4404,153.953,100.965,100.678,0.000676187,0.0474578,20.9372,172.344,0.0255179,0.0,0.0
48,11.75,30.8822,31.3886,158.264,100.948,100.755,0.000661301,0.0473116,20.938,172.303,0.0171408,0.0,0.0
52,12.75,31.036,31.344,151.829,100.955,100.686,0.000656495,0.0470943,20.9385,172.333,0.0238597,0.0,0.0
56,13.75,30.9686,31.191,151.923,100.952,100.529,0.000658759,0.0468907,20.9389,172.283,0.0375834,0.0,0.0
60,14.75,30.9969,31.7736,156.547,100.946,100.376,0.000665743,0.0466916,20.9391,172.273,0.0507232,0.0,0.0
64,15.75,30.7103,31.2664,158.584,100.935,100.398,0.000684421,0.0464557,20.9392,172.253,0.0478185,0.0,0.0
68,16.75,31.0294,31.4742,154.733,100.938,100.348,0.000711712,0.0462151,20.9401,172.223,0.0524773,0.0,0.0
72,17.75,31.3599,31.4441,156.524,100.939,100.329,0.000739156,0.0459918,20.9407,172.203,0.0543383,0.0,0.0
76,18.75,30.7727,31.3994,157.719,100.93,100.199,0.000761646,0.0457661,20.9411,172.123,0.0651024,0.0,0.0
80,19.75,30.8187,31.3477,157.294,100.937,100.142,0.000761541,0.0455089,20.9414,172.083,0.0707642,0.0,0.0
84,20.75,30.8993,31.5574,155.23,100.934,99.9914,0.000743245,0.0453657,20.9415,172.053,0.0840544,0.0,0.0
88,21.75,30.9683,31.5528,157.472,100.936,99.9735,0.000725576,0.0452462,20.9416,172.053,0.0858051,0.0,0.0
92,22.75,30.8269,31.5377,153.674,100.932,99.8043,0.000715672,0.0450853,20.9417,172.023,0.100688,0.0,0.0
96,23.75,30.729,31.7057,155.506,100.939,100.071,0.000721733,0.0449576,20.9415,171.973,0.0773498,0.0,0.0
100,24.75,31.178,31.791,156.931,100.927,99.6115,0.000742703,0.0448455,20.9413,171.943,0.117568,0.0,0.0
104,25.75,30.9365,31.3828,156.19,100.927,99.8305,0.00077077,0.0447065,20.9412,171.943,0.0978236,0.0,0.0
108,26.75,30.8971,31.692,157.807,100.932,99.4527,0.000789185,0.0445809,20.9411,171.913,0.1323,0.0,0.0
112,27.75,30.9377,31.8737,154.366,100.921,99.3223,0.00078632,0.0445563,20.9411,171.863,0.143023,0.0,0.0
116,28.75,30.8246,31.8028,155.546,100.918,99.321,0.000763351,0.0446875,20.941,171.783,0.142884,0.0,0.0
120,29.75,31.1751,31.6334,157.542,100.916,99.478,0.00073725,0.0448556,20.941,171.753,0.128585,0.0,0.0
124,30.75,30.6692,31.6941,155.994,100.917,99.4445,0.000713063,0.0452108,20.941,171.733,0.131683,0.0,0.0
128,31.75,31.0101,31.3677,155.328,100.922,99.2128,0.000707653,0.0455903,20.9405,171.713,0.153014,0.0,0.0
132,32.75,31.0769,31.7545,154.057,100.924,98.9891,0.000723526,0.0459303,20.9398,171.693,0.173389,0.0,0.0
136,33.75,30.9558,32.1155,157.889,100.912,99.0039,0.000751541,0.0460927,20.9394,171.633,0.170979,0.0,0.0
140,34.75,31.0315,32.029,155.554,100.924,98.8901,0.000781053,0.0461829,20.9391,171.593,0.18239,0.0,0.0
144,35.75,30.993,31.9169,156.367,100.917,98.5634,0.000798174,0.0461996,20.9389,171.523,0.211409,0.0,0.0
148,36.75,31.3073,31.809,158.449,100.913,98.7435,0.000816499,0.0461336,20.9387,171.473,0.194682,0.0,0.0
152,37.75,31.3696,31.5033,153.448,100.913,98.3911,0.000840754,0.0460558,20.9387,171.433,0.226714,0.0,0.0
156,38.75,31.4344,32.1072,155.644,100.907,98.3845,0.000870984,0.0459622,20.9394,171.373,0.226757,0.0,0.0
160,39.75,31.5007,31.7035,150.592,100.912,98.2201,0.000913255,0.0458664,20.9399,171.343,0.242258,0.0,0.0
164,40.75,31.2179,31.984,157.558,100.901,98.0173,0.000955869,0.0456753,20.9402,171.273,0.259782,0.0,0.0
168,41.75,31.0975,31.9343,153.014,100.901,98.1896,0.00100084,0.0455499,20.9404,171.253,0.244013,0.0,0.0
172,42.75,31.6445,32.3833,151.961,100.906,97.6674,0.00102915,0.0454878,20.9406,171.182,0.292216,0.0,0.0
176,43.75,31.6794,31.9918,155.901,100.903,97.4729,0.00102845,0.0455334,20.9406,171.132,0.309856,0.0,0.0
180,44.75,31.3161,31.893,155.316,100.893,96.768,0.00100621,0.0456861,20.9399,171.042,0.373953,0.0,0.0
184,45.75,31.4695,32.2339,156.25,100.892,97.3883,0.000972733,0.0459753,20.9394,171.002,0.316606,0.0,1.0
188,46.75,31.1872,31.8227,156.64,100.898,99.3864,0.000939632,0.0462757,20.9391,170.932,0.135253,0.0,1.0
192,47.75,31.624,32.112,151.368,100.897,100.598,0.000912613,0.0466367,20.9389,170.852,0.0266231,0.0,1.0
196,48.75,31.9521,32.368,149.991,100.883,100.558,0.000918204,0.0468735,20.9383,170.732,0.0289812,0.0,1.0
200,49.75,32.2405,32.3981,148.086,100.894,100.145,0.000954569,0.0470802,20.9376,170.552,0.0667752,0.0,1.0
204,50.75,31.7001,32.449,148.956,100.879,99.8946,0.00102061,0.0472928,20.9371,170.462,0.0878358,0.0,1.0
208,51.75,32.2568,32.5509,143.192,100.891,99.7341,0.00108847,0.0475094,20.9368,170.362,0.103347,0.0,0.0
212,52.75,32.6977,32.7457,139.246,100.888,99.5688,0.00113903,0.0478979,20.9366,170.272,0.117878,0.0,0.0
216,53.75,33.4405,33.4615,143.178,100.893,99.246,0.00119168,0.048754,20.937,170.132,0.147481,0.0,0.0
220,54.75,33.9569,33.7756,149.69,100.883,99.4632,0.00127725,0.0548853,20.9377,170.011,0.126937,0.0,0.0
224,55.75,34.1877,33.996,134.422,100.893,98.9402,0.00148441,0.0678532,20.9385,169.831,0.175049,0.0,0.0
228,56.75,34.8241,34.5426,136.631,100.881,98.9171,0.00171629,0.0859467,20.9382,169.671,0.176148,0.0,0.0
232,57.75,35.4861,35.2587,140.76,100.891,99.075,0.00200282,0.110655,20.933,169.511,0.162743,0.0,0.0
236,58.75,36.1788,35.6569,142.483,100.886,98.4412,0.00227032,0.139233,20.9168,169.371,0.219754,0.0,0.0
240,59.75,36.6944,36.5734,139.026,100.893,98.8185,0.00249884,0.169575,20.8879,169.231,0.186074,0.0,0.0
244,60.75,37.2296,36.7412,136.907,100.878,98.6885,0.00271906,0.198419,20.8588,169.071,0.19654,0.0,0.0
248,61.75,37.9203,38.0009,143.256,100.888,98.9773,0.00288738,0.226927,20.833,168.92,0.171251,0.0,0.0
252,62.75,38.6343,38.2897,138.238,100.864,98.9354,0.00302714,0.253531,20.8064,168.76,0.172942,0.0,0.0
256,63.75,39.5004,37.4891,133.79,100.883,98.2873,0.00312894,0.279523,20.7754,168.54,0.233555,0.0,0.0
260,64.75,39.0348,39.1362,136.55,100.885,98.5455,0.00320123,0.303004,20.7413,168.4,0.210162,0.0,0.0
264,65.75,40.7538,40.2132,135.107,100.885,98.3998,0.00325093,0.326227,20.7083,168.19,0.223452,0.0,0.0
268,66.75,41.408,41.1936,132.835,100.882,98.1677,0.00328515,0.348811,20.6761,167.97,0.244345,0.0,0.0
272,67.75,42.2361,42.013,137.293,100.883,97.8275,0.00334167,0.36914,20.6453,167.799,0.275556,0.0,0.0
276,68.75,42.75,42.4824,132.348,100.875,97.79,0.0034325,0.387819,20.6178,167.619,0.278218,0.0,0.0
280,69.75,43.4776,43.2607,136.269,100.883,97.247,0.00353345,0.406938,20.5931,167.399,0.328842,0.0,0.0
284,70.75,44.4075,44.3837,132.876,100.873,97.4271,0.0036132,0.425782,20.5689,167.229,0.311414,0.0,0.0
288,71.75,45.2039,44.8997,133.734,100.881,96.9129,0.00367816,0.446654,20.542,166.999,0.359525,0.0,0.0
292,72.75,46.0396,45.9224,130.028,100.879,97.3783,0.00374325,0.468084,20.5156,166.839,0.316387,0.0,0.0
296,73.75,46.7915,46.6774,130.133,100.888,97.2007,0.00382437,0.490304,20.4916,166.608,0.33358,0.0,0.0
300,74.75,47.6272,47.1828,133.654,100.883,96.4108,0.00389799,0.513397,20.4685,166.408,0.406237,0.0,0.0
304,75.75,48.3066,48.1734,130.934,100.881,96.3995,0.00397681,0.530838,20.4452,166.138,0.407107,0.0,0.0
308,76.75,49.1484,49.5049,124.309,100.876,96.0924,0.0041116,0.552247,20.423,165.918,0.435173,0.0,0.0
312,77.75,50.1624,50.1106,127.402,100.872,94.8925,0.00423237,0.574361,20.3989,165.728,0.547449,0.0,0.0
316,78.75,50.7441,50.9244,132.634,100.876,95.364,0.00433914,0.596123,20.3736,165.527,0.503414,0.0,0.0
320,79.75,52.1351,52.141,127.429,100.873,94.6473,0.00443662,0.617047,20.3459,165.297,0.570731,0.0,0.0
324,80.75,52.5476,52.7114,130.501,100.883,95.4983,0.00452115,0.636902,20.3195,165.117,0.491429,0.0,0.0
328,81.75,53.333,53.7992,125.054,100.878,95.6955,0.00461548,0.654006,20.2959,164.827,0.472512,0.0,0.0
332,82.75,54.1987,54.8357,134.27,100.876,94.424,0.00470772,0.672051,20.2715,164.617,0.592151,0.0,0.0
336,83.75,54.8297,55.7553,131.723,100.88,95.0473,0.00482065,0.692037,20.2499,164.326,0.533505,0.0,0.0
340,84.75,55.88,56.182,125.847,100.879,92.9366,0.00494128,0.712151,20.2266,164.046,0.734645,0.0,0.0
344,85.75,56.7019,57.2026,128.446,100.873,94.458,0.00510829,0.733039,20.2016,163.786,0.58863,0.0,0.0
348,86.75,57.5492,58.2587,126.158,100.868,94.5173,0.00532426,0.753074,20.1759,163.496,0.582563,0.0,0.0
352,87.75,58.7535,59.367,122.497,100.875,94.7603,0.00558154,0.771477,20.15,163.205,0.560155,0.0,0.0
356,88.75,59.8179,60.1385,126.326,100.871,95.3221,0.00582547,0.788539,20.1263,162.975,0.506833,0.0,0.0
360,89.75,60.026,61.3448,127.814,100.857,94.6447,0.00610084,0.804721,20.105,162.735,0.569504,0.0,0.0
364,90.75,60.9945,61.7971,122.85,100.874,92.9829,0.00632075,0.820753,20.0845,162.425,0.729711,0.0,0.0
368,91.75,61.5713,63.2464,118.661,100.867,93.3083,0.00648142,0.833264,20.0666,162.144,0.697789,0.0,0.0
372,92.75,63.0686,64.0836,119.954,100.871,92.6623,0.00658869,0.848317,20.0468,161.864,0.760357,0.0,0.0
376,93.75,64.0895,64.7518,126.285,100.877,92.1266,0.00665573,0.867335,20.0294,161.504,0.812843,0.0,0.0
380,94.75,64.9099,65.7555,118.713,100.876,93.2127,0.00670106,0.883105,20.0143,161.174,0.707739,0.0,0.0
384,95.75,65.4517,66.4659,126.54,100.869,92.767,0.00674921,0.903356,19.9938,160.813,0.750132,0.0,0.0
388,96.75,66.2083,67.7052,119.599,100.874,92.7984,0.00682819,0.921537,19.9721,160.543,0.747504,0.0,0.0
392,97.75,67.0483,68.4906,125.861,100.867,92.5833,0.00691828,0.939135,19.9508,160.243,0.767661,0.0,0.0
396,98.75,68.2034,69.4607,120.745,100.885,92.8267,0.00699704,0.953063,19.9317,159.993,0.745726,0.0,0.0
400,99.75,68.6938,70.0228,118.158,100.878,91.9055,0.00710805,0.975779,19.9113,159.652,0.834446,0.0,0.0
404,100.75,69.9163,71.7511,118.303,100.871,91.4584,0.00723441,0.998443,19.8904,159.312,0.877506,0.0,0.0
408,101.75,70.4978,72.5598,114.637,100.889,90.8792,0.00737041,1.0187,19.8676,159.002,0.93608,0.0,0.0
412,102.75,71.8099,73.6914,120.524,100.872,90.7858,0.00748247,1.03826,19.8421,158.671,0.943776,0.0,0.0
416,103.75,72.6769,74.6638,124.184,100.873,92.4769,0.00759623,1.0573,19.817,158.321,0.778518,0.0,0.0
420,104.75,73.3489,75.9003,117.516,100.868,90.5791,0.00770492,1.07691,19.7944,157.951,0.963796,0.0,0.0
424,105.75,74.3173,76.7676,119.27,100.873,89.1423,0.00779714,1.09444,19.7744,157.58,1.10755,0.0,0.0
428,106.75,75.1833,77.8624,111.763,100.89,90.0059,0.00787962,1.11246,19.7509,157.22,1.02261,0.0,0.0
432,107.75,76.4433,78.9921,114.579,100.88,90.1298,0.0079543,1.1312,19.7267,156.91,1.00941,0.0,0.0
436,108.75,77.3409,79.9941,123.269,100.892,88.42,0.00802556,1.1484,19.7043,156.559,1.18209,0.0,0.0
440,109.75,78.3094,80.5345,119.964,100.895,88.4736,0.00810635,1.1679,19.6827,156.249,1.17688,0.0,0.0
444,110.75,78.8193,81.8045,106.31,100.881,91.6006,0.00825743,1.18835,19.6622,155.889,0.864472,0.0,0.0
448,111.75,79.6827,83.1291,112.588,100.89,90.9651,0.00844573,1.20981,19.6403,155.549,0.927725,0.0,0.0
452,112.75,80.376,83.6128,112.4,100.883,89.869,0.00862554,1.22968,19.6192,155.198,1.03566,0.0,0.0
456,113.75,81.2416,84.9576,118.576,100.89,91.1221,0.00884865,1.24953,19.5955,154.788,0.912275,0.0,0.0
460,114.75,82.3262,85.8947,112.538,100.902,90.0853,0.00907246,1.26824,19.5702,154.388,1.01582,0.0,0.0
464,115.75,83.4248,87.0911,116.816,100.898,91.1775,0.00935025,1.28446,19.5479,154.057,0.907457,0.0,0.0
468,116.75,84.3368,87.2576,113.902,100.906,91.9775,0.00958644,1.29901,19.5253,153.697,0.829975,0.0,0.0
472,117.75,84.5684,88.3945,110.774,100.899,90.651,0.00990784,1.31473,19.5053,153.317,0.95948,0.0,0.0
476,118.75,85.5705,89.2271,115.444,100.906,91.2141,0.0102481,1.33035,19.489,153.046,0.904631,0.0,0.0
480,119.75,86.052,90.2943,113.28,100.905,90.4181,0.0105488,1.34675,19.4717,152.736,0.983007,0.0,0.0
484,120.75,87.5581,91.011,118.504,100.914,91.1195,0.0108164,1.36273,19.4552,152.396,0.914631,0.0,0.0
488,121.75,87.6636,92.7571,122.254,100.914,91.0488,0.0110429,1.37708,19.4393,152.115,0.921543,0.0,0.0
492,122.75,88.1548,93.2374,115.83,100.932,90.3898,0.0112435,1.39045,19.4192,151.665,0.988245,0.0,0.0
496,123.75,89.0045,93.9487,120.118,100.914,90.9437,0.0113554,1.40125,19.4043,151.335,0.931929,0.0,0.0
500,124.75,90.1582,94.2591,119.611,100.926,90.8687,0.0113778,1.40628,19.3887,151.004,0.94039,0.0,0.0
504,125.75,90.2026,95.4496,118.678,100.914,90.6807,0.0113287,1.40823,19.3735,150.734,0.957875,0.0,0.0
508,126.75,91.0638,95.7525,119.841,100.932,91.3795,0.0112598,1.40909,19.3623,150.444,0.890693,0.0,0.0
512,127.75,90.5577,96.3874,115.695,100.934,92.0734,0.0112007,1.40883,19.355,150.174,0.823138,0.0,0.0
516,128.75,91.1095,97.5068,120.796,100.934,90.9271,0.0111824,1.40731,19.3502,149.883,0.935366,0.0,0.0
520,129.75,91.7507,97.2707,116.287,100.937,90.9734,0.0111838,1.40463,19.347,149.553,0.930996,0.0,0.0
524,130.75,91.9873,98.4592,121.217,100.94,93.1892,0.0111736,1.40167,19.3459,149.213,0.715748,0.0,0.0
528,131.75,92.3316,98.7099,120.89,100.935,93.0544,0.0111267,1.39147,19.3463,148.923,0.728272,0.0,0.0
532,132.75,92.433,99.0128,117.212,100.937,93.276,0.0110414,1.37665,19.3478,148.602,0.70715,0.0,0.0
536,133.75,93.0564,99.0588,123.913,100.941,91.9526,0.01095,1.35866,19.3539,148.292,0.83549,0.0,0.0
540,134.75,93.1249,99.6934,122.076,100.943,92.8337,0.0108503,1.34037,19.3678,148.052,0.750207,0.0,0.0
544,135.75,93.2291,100.276,115.033,100.953,92.8128,0.0107589,1.31904,19.3868,147.832,0.753112,0.0,0.0
548,136.75,93.6023,100.501,121.714,100.956,93.0138,0.0106916,1.29657,19.4056,147.551,0.734055,0.0,0.0
552,137.75,93.5265,100.755,122.146,100.959,92.5214,0.010638,1.27402,19.4249,147.311,0.781868,0.0,0.0
556,138.75,93.6171,100.728,121.473,100.956,91.7472,0.0105958,1.25311,19.4463,147.061,0.856853,0.0,0.0
560,139.75,93.9177,100.878,125.65,100.963,90.5485,0.0105328,1.23375,19.4701,146.751,0.975322,0.0,0.0
564,140.75,93.9252,101.296,120.711,100.969,90.4639,0.0104422,1.21462,19.4979,146.46,0.984213,0.0,0.0
568,141.75,93.9953,101.08,124.477,100.975,88.4636,0.0103099,1.19314,19.524,146.17,1.185,0.0,0.0
572,142.75,93.5271,101.222,124.232,100.978,89.2287,0.0101529,1.17186,19.546,145.96,1.10819,0.0,0.0
576,143.75,93.8571,101.321,125.899,100.975,88.9949,0.00999827,1.14778,19.5633,145.68,1.1314,0.0,0.0
580,144.75,93.8667,101.338,128.091,100.976,90.4639,0.00981711,1.13198,19.5813,145.45,0.984764,0.0,0.0
584,145.75,93.8664,101.679,124.236,100.983,90.1787,0.00965044,1.10739,19.6044,145.179,1.01372,0.0,0.0
588,146.75,93.7946,101.647,123.094,100.985,90.0923,0.009495,1.08288,19.6269,144.869,1.02245,0.0,0.0
592,147.75,93.6817,101.434,127.44,100.988,90.258,0.00940653,1.06219,19.648,144.609,1.00632,0.0,0.0
596,148.75,93.2355,101.642,126.4,100.992,90.3658,0.00941792,1.0476,19.6779,144.359,0.995924,0.0,0.0
600,149.75,93.2357,101.454,129.967,101,91.2224,0.00954268,1.03762,19.7106,144.098,0.912135,0.0,0.0
604,150.75,93.3835,101.063,129.63,101.004,91.1112,0.00968221,1.02989,19.7347,143.868,0.923396,0.0,0.0
608,151.75,92.8083,100.824,127.183,101.001,91.0615,0.00997811,1.02316,19.7505,143.688,0.928029,0.0,0.0
612,152.75,92.3964,100.766,129.158,101.007,92.1506,0.0102711,1.01536,19.7609,143.508,0.822107,0.0,0.0
616,153.75,92.1314,100.957,130.465,101.001,92.3753,0.0104987,1.00506,19.769,143.378,0.799743,0.0,0.0
620,154.75,92.0256,100.019,135.056,101.014,93.5106,0.0106221,0.992839,19.7765,143.238,0.691412,0.0,0.0
624,155.75,91.6923,99.5223,132.469,101.021,96.0431,0.0106418,0.981007,19.7855,143.077,0.45269,0.0,0.0
628,156.75,90.4851,99.375,142.068,101.014,98.4456,0.0105697,0.969408,19.7978,142.987,0.230731,0.0,0.0
632,157.75,89.7966,99.2964,144.951,101.015,100.423,0.0104719,0.955043,19.8088,142.927,0.0527024,0.0,0.0
636,158.75,88.8352,98.3271,142.356,101.027,101.368,0.0103294,0.939868,19.82,142.897,-0.0301934,0.0,0.0
640,159.75,88.3132,97.4447,144.792,101.012,101.491,0.010128,0.920342,19.8337,142.857,-0.0423811,0.0,0.0
644,160.75,87.4453,96.652,146.908,101.019,101.599,0.00987183,0.895415,19.8474,142.857,-0.0512586,0.0,0.0
648,161.75,86.6202,95.4602,147.599,101.017,101.64,0.00955185,0.858689,19.8665,142.817,-0.0550567,0.0,0.0
652,162.75,84.957,95.0056,144.851,101.021,101.565,0.00919267,0.807495,19.8903,142.787,-0.0480741,0.0,0.0
656,163.75,84.1808,94.2814,150.075,101.018,101.702,0.00878252,0.750039,19.9228,142.747,-0.0604039,0.0,0.0
660,164.75,83.5137,93.2265,146.839,101.015,101.457,0.0083571,0.685614,19.964,142.697,-0.0391161,0.0,0.0
664,165.75,82.7161,91.8322,148.587,101.019,101.547,0.00780205,0.606262,20.0149,142.647,-0.0466805,0.0,0.0
668,166.75,81.4928,91.6046,153.576,101.024,101.606,0.00725467,0.530365,20.0751,142.667,-0.0514326,0.0,0.0
672,167.75,81.1737,90.6214,149.453,101.022,101.664,0.00674369,0.465732,20.1363,142.657,-0.0567314,0.0,0.0
676,168.75,79.9371,89.2662,149.907,101.02,101.593,0.00621135,0.402777,20.2204,142.627,-0.0506099,0.0,0.0
680,169.75,79.2068,88.4665,151.536,101.022,101.582,0.00575849,0.346444,20.3071,142.607,-0.0495768,0.0,0.0
684,170.75,78.9516,87.5422,151.836,101.017,101.793,0.00541155,0.300487,20.4042,142.587,-0.0685422,0.0,0.0
688,171.75,78.2636,86.6959,147.061,101.014,101.667,0.00518673,0.264506,20.48,142.557,-0.0577363,0.0,0.0
692,172.75,77.0089,86.2677,148.033,101.019,101.667,0.00508553,0.236257,20.5523,142.487,-0.0572946,0.0,0.0
696,173.75,76.0069,85.1131,147.343,101.019,101.602,0.00507271,0.213355,20.6133,142.487,-0.0515641,0.0,0.0
700,174.75,75.1514,84.339,145.999,101.013,101.634,0.00516515,0.195417,20.6622,142.447,-0.0548869,0.0,0.0
704,175.75,74.6579,83.8697,150.971,101.022,101.542,0.00531072,0.1813,20.7023,142.427,-0.0460751,0.0,0.0
708,176.75,74.2591,83.0112,153.047,101.015,101.627,0.00549126,0.170008,20.7324,142.397,-0.0540875,0.0,0.0
712,177.75,73.3986,82.5051,150.707,101.012,101.596,0.00566261,0.161758,20.7549,142.407,-0.0516517,0.0,0.0
716,178.75,72.6077,80.9802,147.236,101.017,101.502,0.00579666,0.154523,20.7718,142.407,-0.0429751,0.0,0.0
720,179.75,72.6878,80.9312,151.854,101.012,101.614,0.0059135,0.148743,20.7847,142.387,-0.0533054,0.0,0.0
724,180.75,71.4637,80.5663,154.374,101.012,101.59,0.00603535,0.143958,20.7963,142.357,-0.0510389,0.0,0.0
728,181.75,71.3325,79.0519,146.189,101.002,101.595,0.00615779,0.140243,20.8055,142.327,-0.0523837,0.0,0.0
732,182.75,69.9328,79.025,146.623,101.011,101.623,0.00631887,0.137158,20.814,142.317,-0.0540719,0.0,0.0
736,183.75,69.2494,78.569,149.949,101.015,101.568,0.00653313,0.134535,20.8195,142.307,-0.0488584,0.0,0.0
740,184.75,68.8479,78.0973,149.323,101.006,101.617,0.00677086,0.132186,20.8244,142.317,-0.0540123,0.0,0.0
744,185.75,68.4231,77.2372,146.099,101.008,101.608,0.00700534,0.130161,20.828,142.297,-0.0530981,0.0,0.0
748,186.75,67.7948,76.7074,148.84,100.995,101.447,0.00720849,0.128381,20.8308,142.267,-0.0399984,0.0,0.0
752,187.75,67.6794,76.0333,147.783,100.993,101.522,0.00737999,0.126709,20.834,142.257,-0.0468067,0.0,0.0
756,188.75,66.9518,75.3165,151.387,101.009,101.604,0.0075101,0.125267,20.8367,142.237,-0.0526028,0.0,0.0
760,189.75,66.678,74.2585,147.238,100.987,101.58,0.00760219,0.124135,20.8384,142.227,-0.052438,0.0,0.0
764,190.75,66.0083,73.9414,147.028,100.984,101.529,0.00766468,0.123323,20.8402,142.177,-0.0481932,0.0,0.0
768,191.75,65.462,73.6771,151.178,100.985,101.53,0.00778257,0.122621,20.841,142.187,-0.0481599,0.0,0.0
772,192.75,64.8147,72.9808,150.388,100.983,101.476,0.00791712,0.121896,20.8412,142.167,-0.0436457,0.0,0.0
776,193.75,64.0406,72.6975,153.493,100.976,101.653,0.00813055,0.121024,20.8413,142.137,-0.0598529,0.0,0.0
780,194.75,64.1174,71.7785,148.841,100.978,101.473,0.00831393,0.119969,20.8413,142.117,-0.0438164,0.0,0.0
784,195.75,63.7321,70.835,152.635,100.978,101.497,0.00844444,0.119051,20.8427,142.097,-0.0459721,0.0,0.0
788,196.75,63.1658,70.8092,149.433,100.979,101.486,0.00852292,0.118332,20.8447,142.087,-0.0448993,0.0,0.0
792,197.75,62.6453,69.4811,154.499,100.976,101.306,0.00855953,0.117926,20.846,142.077,-0.0291658,0.0,0.0
796,198.75,62.5096,69.478,151.568,100.973,101.357,0.00858355,0.117784,20.8468,142.077,-0.0340469,0.0,0.0
800,199.75,61.7255,69.0561,150.61,100.978,101.457,0.00861401,0.117822,20.8474,142.077,-0.0423543,0.0,0.0
804,200.75,60.8964,69.2584,154.627,100.973,101.381,0.00865999,0.117778,20.8478,142.077,-0.0361675,0.0,0.0
808,201.75,60.8146,68.1143,150.137,100.974,101.721,0.00871156,0.117472,20.848,142.026,-0.0660696,0.0,0.0
812,202.75,60.6258,67.6592,148.735,100.974,101.505,0.00875712,0.117108,20.8481,142.047,-0.0470343,0.0,0.0
816,203.75,60.141,67.1505,156.751,100.963,101.433,0.00881833,0.116532,20.8483,142.026,-0.0416741,0.0,0.0
820,204.75,59.6081,66.8932,154.116,100.966,101.436,0.0088945,0.116092,20.8486,141.996,-0.0416494,0.0,0.0
824,205.75,59.3526,66.5061,150.502,100.964,101.365,0.00896433,0.115766,20.8493,141.996,-0.035439,0.0,0.0
828,206.75,59.088,65.6253,151.006,100.962,101.394,0.00904286,0.115415,20.8498,141.986,-0.0382055,0.0,0.0
832,207.75,58.6634,65.5514,150.692,100.953,101.419,0.00909905,0.114979,20.8502,142.016,-0.0412476,0.0,0.0
836,208.75,58.4812,65.1832,153.783,100.959,101.419,0.00913826,0.114395,20.851,141.976,-0.0407364,0.0,0.0
840,209.75,58.1067,64.7934,148.22,100.948,101.419,0.00916038,0.11399,20.8516,141.976,-0.0417674,0.0,0.0
844,210.75,57.3183,64.3771,150.627,100.954,101.364,0.0091661,0.113616,20.8521,142.006,-0.0363568,0.0,0.0
848,211.75,57.7034,63.4071,148.963,100.947,101.426,0.00916221,0.113264,20.8525,141.976,-0.0424198,0.0,0.0
852,212.75,56.9498,63.5088,155.687,100.947,101.435,0.00916478,0.112992,20.8527,141.936,-0.0432272,0.0,0.0
856,213.75,56.8464,63.1059,150.632,100.946,101.347,0.00918138,0.112802,20.8529,141.936,-0.0355145,0.0,0.0
860,214.75,56.4657,62.66,148.462,100.939,101.337,0.00922716,0.112572,20.8532,141.936,-0.0352165,0.0,0.0
864,215.75,56.1743,62.4018,151.326,100.926,101.387,0.00930613,0.112158,20.8541,141.896,-0.0408281,0.0,0.0
868,216.75,55.9354,61.8138,152.362,100.928,101.381,0.0093747,0.111948,20.8547,141.916,-0.040067,0.0,0.0
872,217.75,55.5311,61.85,153.719,100.924,101.354,0.00941425,0.111931,20.8551,141.876,-0.0380843,0.0,0.0
876,218.75,55.4563,61.4035,150.831,100.924,101.234,0.00942351,0.111678,20.8561,141.886,-0.0274003,0.0,0.0
880,219.75,55.1416,60.7868,150.024,100.916,101.31,0.00942129,0.111366,20.8568,141.876,-0.0349645,0.0,0.0
884,220.75,55.076,60.5596,151.911,100.931,101.211,0.0094475,0.111103,20.8573,141.866,-0.0248427,0.0,0.0
888,221.75,54.6577,60.2307,149.363,100.91,101.281,0.00952196,0.11093,20.8576,141.836,-0.0328587,0.0,0.0
892,222.75,54.3679,60.0387,151.372,100.908,101.28,0.00961529,0.110816,20.8578,141.846,-0.0330023,0.0,0.0
896,223.75,53.9672,59.4596,152.526,100.904,101.283,0.00972761,0.110825,20.8579,141.796,-0.0335264,0.0,0.0
900,224.75,53.9069,59.4142,156.124,100.895,101.214,0.00984434,0.111061,20.858,141.806,-0.0283147,0.0,0.0
904,225.75,52.9691,58.841,151.205,100.892,101.336,0.00995046,0.111417,20.8581,141.816,-0.0393006,0.0,0.0
908,226.75,52.9632,58.401,151.375,100.896,101.277,0.0100295,0.111675,20.8581,141.776,-0.0337247,0.0,0.0
912,227.75,52.8209,58.084,148.897,100.889,101.315,0.0100579,0.111804,20.8581,141.806,-0.0377079,0.0,0.0
916,228.75,52.6689,57.7793,150.791,100.885,101.231,0.0100433,0.111788,20.8577,141.786,-0.0307061,0.0,0.0
920,229.75,52.7269,57.4397,158.689,100.88,101.249,0.0100062,0.111437,20.857,141.746,-0.032692,0.0,0.0
924,230.75,52.0304,57.4165,152.368,100.878,101.264,0.00997142,0.11071,20.8566,141.706,-0.0341889,0.0,0.0
928,231.75,52.0366,57.0205,155.24,100.874,101.338,0.0099286,0.109843,20.8568,141.706,-0.041114,0.0,0.0
932,232.75,51.4218,56.6852,151.378,100.869,101.136,0.00986045,0.109049,20.8573,141.686,-0.0236466,0.0,0.0
936,233.75,51.6219,56.4082,149.953,100.884,101.138,0.0098063,0.108633,20.8588,141.656,-0.0225529,0.0,0.0
940,234.75,51.6871,56.1845,152.009,100.858,101.223,0.00972627,0.108615,20.8602,141.646,-0.0323672,0.0,0.0
944,235.75,51.5055,55.9709,149.576,100.856,101.245,0.00969016,0.108796,20.8611,141.666,-0.0345196,0.0,0.0
948,236.75,50.9814,55.455,148.882,100.864,101.4,0.0097027,0.109021,20.8617,141.656,-0.0475099,0.0,0.0
952,237.75,50.7947,55.5582,151.404,100.852,101.252,0.0097553,0.109274,20.8615,141.596,-0.035506,0.0,0.0
956,238.75,50.7936,55.1312,154.935,100.859,101.128,0.00984208,0.109335,20.8608,141.636,-0.0237987,0.0,0.0
960,239.75,50.6342,55.1092,152.556,100.864,101.169,0.00992326,0.109221,20.8602,141.566,-0.0270265,0.0,0.0
964,240.75,50.0414,54.5854,152.242,100.85,101.146,0.0100117,0.109101,20.8596,141.526,-0.0262301,0.0,0.0
968,241.75,50.0006,54.6366,151.098,100.857,101.17,0.0100864,0.10901,20.8592,141.556,-0.0277672,0.0,0.0
972,242.75,49.8497,54.2532,154.312,100.848,101.211,0.0101619,0.109083,20.859,141.486,-0.0322091,0.0,0.0
976,243.75,50.0496,53.8744,150.109,100.877,101.157,0.0102389,0.109051,20.8588,141.506,-0.0248031,0.0,0.0
980,244.75,49.1253,53.6394,155.05,100.912,101.216,0.0103135,0.108885,20.8587,141.416,-0.0269612,0.0,0.0
984,245.75,49.5066,53.461,152.682,100.927,101.192,0.0103586,0.108633,20.8586,141.476,-0.0234758,0.0,0.0
988,246.75,48.9123,53.3656,147.599,100.946,101.291,0.010368,0.108461,20.8586,141.446,-0.0305781,0.0,0.0
992,247.75,48.7526,52.9776,149.459,100.967,101.361,0.0103575,0.108339,20.8585,141.416,-0.0349099,0.0,0.0
996,248.75,48.4264,52.7837,153.438,100.99,101.278,0.0103083,0.108216,20.8591,141.416,-0.0255576,0.0,0.0
1000,249.75,48.4382,52.8234,149.986,101.01,101.369,0.0102409,0.108061,20.8597,141.366,-0.0317767,0.0,0.0
1004,250.75,48.3849,52.4735,152.103,101.041,101.347,0.0101503,0.10796,20.8601,141.356,-0.0271272,0.0,0.0
1008,251.75,48.3511,52.3233,151.78,101.067,101.294,0.010055,0.107893,20.8603,141.316,-0.0201053,0.0,0.0
1012,252.75,48.362,52.0949,153.485,101.09,101.445,0.00999244,0.107858,20.8604,141.326,-0.0314209,0.0,0.0
1016,253.75,48.3713,51.4928,152.1,101.1,101.466,0.00993428,0.107669,20.8606,141.316,-0.0323522,0.0,0.0
1020,254.75,47.8657,51.758,149.72,101.125,101.503,0.00989926,0.107354,20.8606,141.276,-0.0333812,0.0,0.0
1024,255.75,47.7365,51.4724,149.499,101.148,101.442,0.0099021,0.106978,20.8607,141.266,-0.0260063,0.0,0.0
1028,256.75,47.6745,51.2643,154.035,101.16,101.42,0.00995322,0.106724,20.8605,141.246,-0.0230149,0.0,0.0
1032,257.75,47.3442,50.7708,151.232,101.169,101.437,0.0100572,0.106647,20.8603,141.256,-0.0237109,0.0,0.0
1036,258.75,46.8843,51.2061,149.27,101.194,101.556,0.0101724,0.106608,20.8604,141.236,-0.0319771,0.0,0.0
1040,259.75,47.51,50.9008,152.298,101.203,101.436,0.010261,0.106562,20.8611,141.226,-0.0205816,0.0,0.0
1044,260.75,46.8983,50.0841,149.182,101.214,101.409,0.0103501,0.10636,20.8626,141.216,-0.0171651,0.0,0.0
1048,261.75,46.454,49.9054,157.438,101.226,101.588,0.0104069,0.106183,20.8636,141.206,-0.0319616,0.0,0.0
1052,262.75,46.1906,49.6471,151.967,101.235,101.621,0.0103941,0.106044,20.8642,141.156,-0.0341503,0.0,0.0
1056,263.75,46.4402,49.4466,149.314,101.246,101.476,0.0103261,0.105897,20.8646,141.166,-0.0203461,0.0,0.0
1060,264.75,45.9584,49.5013,153.507,101.261,101.51,0.0102352,0.105564,20.8649,141.136,-0.0219909,0.0,0.0
1064,265.75,45.7145,49.2165,153.396,101.277,101.58,0.0101444,0.105285,20.8652,141.106,-0.0267909,0.0,0.0
1068,266.75,45.5995,49.0486,151.906,101.293,101.615,0.0100921,0.105003,20.8656,141.106,-0.0284384,0.0,0.0
1072,267.75,45.5599,48.731,152.171,101.305,101.434,0.0100894,0.104713,20.8661,141.076,-0.0114019,0.0,0.0
1076,268.75,45.6626,48.8186,151.01,101.337,101.619,0.0101066,0.104384,20.867,141.066,-0.0248946,0.0,0.0
1080,269.75,45.4285,48.7256,150.507,101.343,101.635,0.0101813,0.103944,20.8675,141.066,-0.0257685,0.0,0.0
1084,270.75,45.1345,48.5803,155.395,101.352,101.66,0.0102256,0.103511,20.8679,141.056,-0.0271883,0.0,0.0
1088,271.75,44.7425,48.0345,153.164,101.369,101.589,0.0102195,0.103172,20.8682,141.056,-0.0194562,0.0,0.0
1092,272.75,44.8564,47.9566,150.639,101.373,101.642,0.0101802,0.103134,20.8683,141.106,-0.023706,0.0,0.0
1096,273.75,44.9606,47.7453,152.069,101.387,101.586,0.0101489,0.103363,20.8684,141.086,-0.0175738,0.0,0.0
1100,274.75,44.5809,47.6239,153.59,101.399,101.617,0.010162,0.103589,20.8685,141.066,-0.0192785,0.0,0.0
1104,275.75,44.1867,47.5348,152.181,101.415,101.838,0.0102108,0.103734,20.8686,140.986,-0.0372489,0.0,0.0
1108,276.75,44.9046,47.5116,154.995,101.436,101.848,0.0103179,0.103622,20.8684,141.036,-0.036301,0.0,0.0
1112,277.75,44.7835,47.1464,154.51,101.439,101.67,0.0104281,0.103464,20.8682,140.976,-0.0203761,0.0,0.0
1116,278.75,44.9695,46.9485,155.073,101.44,101.655,0.0105145,0.103351,20.8681,141.046,-0.019034,0.0,0.0
1120,279.75,43.9992,46.8799,152.648,101.447,101.614,0.0105548,0.103333,20.868,140.966,-0.0147211,0.0,0.0
1124,280.75,44.6072,46.96,150.462,101.466,101.736,0.0105388,0.103356,20.8679,141.006,-0.0238351,0.0,0.0
1128,281.75,44.0372,46.2829,152.335,101.467,101.746,0.0105113,0.103371,20.8683,140.996,-0.0246087,0.0,0.0
1132,282.75,44.1007,46.7271,146.561,101.472,101.853,0.0104515,0.103207,20.8687,140.996,-0.0336481,0.0,0.0
1136,283.75,43.7783,46.7995,153.464,101.477,101.713,0.0103938,0.102885,20.8684,140.936,-0.0208856,0.0,0.0
1140,284.75,44.096,45.9414,149.401,101.487,101.788,0.0103602,0.10257,20.8682,140.986,-0.0265365,0.0,0.0
1144,285.75,44.2355,46.223,151.594,101.498,101.799,0.0103647,0.102237,20.868,140.986,-0.0265081,0.0,0.0
1148,286.75,43.9107,46.2974,155.208,101.504,101.676,0.0103768,0.101983,20.868,140.986,-0.0150896,0.0,0.0
1152,287.75,43.8938,45.9233,153.018,101.513,101.637,0.0103673,0.101793,20.8682,140.946,-0.0109748,0.0,0.0
1156,288.75,43.7979,45.6719,154.521,101.536,101.713,0.0103064,0.101613,20.8684,140.946,-0.0155752,0.0,0.0
1160,289.75,43.9099,45.5065,157.219,101.521,101.744,0.0102308,0.10139,20.8685,140.895,-0.0197318,0.0,0.0
1164,290.75,43.2375,45.3348,152.192,101.54,101.852,0.0101032,0.101098,20.8685,140.915,-0.0274925,0.0,0.0
1168,291.75,43.1525,45.1417,155.527,101.539,101.806,0.00997965,0.100767,20.8686,140.915,-0.0234983,0.0,0.0
1172,292.75,43.7505,45.4125,155.618,101.551,101.755,0.00987045,0.10054,20.8688,140.895,-0.0180195,0.0,0.0
1176,293.75,43.2977,45.8131,154.56,101.566,101.719,0.00980583,0.100536,20.8696,140.875,-0.0135151,0.0,0.0
1180,294.75,43.566,45.0977,151.683,101.562,101.738,0.00978218,0.100634,20.8701,140.885,-0.0155715,0.0,0.0
1184,295.75,42.6236,44.9341,150.349,101.568,101.751,0.00978775,0.100728,20.8704,140.865,-0.0161364,0.0,0.0
1188,296.75,42.9037,44.8027,154.533,101.574,101.846,0.00980778,0.100809,20.8706,140.865,-0.0239935,0.0,0.0
1192,297.75,42.9151,44.832,149.549,101.575,101.821,0.00988131,0.101017,20.8705,140.835,-0.0216563,0.0,0.0
1196,298.75,42.844,45.1719,152.689,101.6,101.799,0.0100158,0.101338,20.8697,140.785,-0.0175813,0.0,0.0
1200,299.75,42.9121,44.783,153.276,101.606,101.799,0.0101236,0.101545,20.8692,140.755,-0.016958,0.0,0.0
1204,300.75,42.9701,44.9655,156.054,101.599,101.788,0.0102621,0.101674,20.8687,140.765,-0.0165809,0.0,0.0
1208,301.75,42.6435,45.0251,152.59,101.618,101.875,0.010368,0.101556,20.8684,140.795,-0.0226113,0.0,0.0
1212,302.75,42.6566,44.5501,151.01,101.609,101.935,0.0104139,0.101383,20.8682,140.755,-0.0286312,0.0,0.0
1216,303.75,42.349,44.384,153.393,101.628,101.748,0.0104077,0.101158,20.8681,140.715,-0.0106391,0.0,0.0
1220,304.75,42.3856,44.5882,154.006,101.645,101.934,0.0103742,0.101115,20.8682,140.705,-0.0253728,0.0,0.0
1224,305.75,42.5544,44.0146,152.4,101.63,101.908,0.0103207,0.10113,20.8689,140.715,-0.0244642,0.0,0.0
1228,306.75,42.3419,43.7637,153.539,101.635,101.879,0.0102746,0.101168,20.87,140.705,-0.0214192,0.0,0.0
1232,307.75,41.9146,43.8147,152.033,101.643,101.756,0.0102292,0.101169,20.8707,140.685,-0.00997725,0.0,0.0
1236,308.75,42.2763,44.0872,155.869,101.637,101.968,0.0101817,0.101136,20.8715,140.675,-0.0291326,0.0,0.0
1240,309.75,42.2784,44.07,154.079,101.641,101.792,0.0101261,0.101076,20.872,140.675,-0.0132718,0.0,0.0
1244,310.75,42.0446,43.7431,153.052,101.648,101.791,0.0100879,0.101064,20.8717,140.635,-0.0126076,0.0,0.0
1248,311.75,41.2654,42.9184,152.241,101.643,101.841,0.0101057,0.10123,20.8713,140.625,-0.0174989,0.0,0.0
1252,312.75,41.5662,43.491,150.893,101.645,101.865,0.0101689,0.101552,20.8711,140.595,-0.0193898,0.0,0.0
1256,313.75,41.7793,43.3162,152.413,101.657,101.884,0.0102739,0.10175,20.8709,140.555,-0.0200534,0.0,0.0
1260,314.75,41.8989,43.3866,155.449,101.643,101.837,0.0103522,0.101588,20.8708,140.555,-0.0170779,0.0,0.0
1264,315.75,41.5236,43.3382,152.879,101.652,101.941,0.0103589,0.10118,20.8708,140.535,-0.0254397,0.0,0.0
1268,316.75,41.1136,43.3036,151.626,101.65,101.826,0.0102905,0.100634,20.8707,140.515,-0.0154613,0.0,0.0
1272,317.75,41.7951,43.2682,150.837,101.652,101.919,0.010236,0.100165,20.8707,140.475,-0.0234485,0.0,0.0
1276,318.75,41.488,42.9539,150.461,101.645,101.833,0.0101475,0.0997314,20.8715,140.475,-0.0165509,0.0,0.0
1280,319.75,41.0498,42.9869,154.721,101.645,101.87,0.010106,0.0995503,20.872,140.445,-0.0198479,0.0,0.0
1284,320.75,41.2548,43.3346,152.358,101.648,101.876,0.0101076,0.0996452,20.8723,140.415,-0.0200908,0.0,0.0
1288,321.75,41.3984,42.7738,150.024,101.65,101.861,0.0101426,0.0999025,20.8725,140.385,-0.0186032,0.0,0.0
1292,322.75,41.1933,42.6952,148.368,101.642,101.829,0.0101955,0.10029,20.8727,140.405,-0.016536,0.0,0.0
1296,323.75,41.0753,43.1465,151.136,101.641,101.849,0.0103055,0.100642,20.8721,140.355,-0.0183352,0.0,0.0
1300,324.75,41.4008,42.1549,152.751,101.651,101.809,0.0104536,0.10091,20.8716,140.345,-0.0139301,0.0,0.0
1304,325.75,41.4364,42.2782,147.039,101.652,101.789,0.0106122,0.101165,20.8713,140.345,-0.0120163,0.0,0.0
1308,326.75,41.1662,42.4259,155.186,101.66,101.882,0.010729,0.101358,20.8711,140.325,-0.0195306,0.0,0.0
1312,327.75,41.5179,42.3552,149.159,101.64,101.821,0.0108062,0.101498,20.8709,140.305,-0.0158785,0.0,0.0
1316,328.75,41.1989,42.4631,153.724,101.641,101.72,0.0108144,0.101593,20.8706,140.285,-0.00693348,0.0,0.0
1320,329.75,41.1712,42.2228,151.265,101.643,101.815,0.0108131,0.101606,20.8694,140.285,-0.0151233,0.0,0.0
1324,330.75,40.7573,42.1796,156.17,101.632,101.863,0.0108211,0.101554,20.8687,140.275,-0.0203295,0.0,0.0
1328,331.75,40.6744,41.8291,151.939,101.638,101.743,0.0108323,0.10132,20.8679,140.245,-0.00926151,0.0,0.0
1332,332.75,40.7351,42.0385,149.717,101.633,101.796,0.0108487,0.101044,20.8675,140.265,-0.014351,0.0,0.0
1336,333.75,40.4466,41.9332,148.89,101.627,101.71,0.0108612,0.100746,20.8672,140.255,-0.00733373,0.0,0.0
1340,334.75,40.7404,42.0702,153.863,101.62,101.79,0.0108552,0.100533,20.8676,140.245,-0.0150195,0.0,0.0
1344,335.75,40.6757,41.8928,151.058,101.635,101.737,0.0108183,0.100503,20.868,140.195,-0.00898357,0.0,0.0
1348,336.75,40.4114,41.6466,150.771,101.631,101.788,0.0107611,0.10054,20.8683,140.165,-0.0138017,0.0,0.0
1352,337.75,40.4908,41.83,155.303,101.628,101.932,0.0106907,0.100514,20.8685,140.145,-0.0267941,0.0,0.0
1356,338.75,40.4154,41.7116,153.186,101.621,101.709,0.0106055,0.100404,20.8687,140.155,-0.0077666,0.0,0.0
1360,339.75,40.629,42.0737,156.842,101.626,101.842,0.0105064,0.100207,20.8687,140.175,-0.0189992,0.0,0.0
1364,340.75,40.4151,41.5744,152.97,101.628,101.868,0.0104097,0.100128,20.8688,140.165,-0.0211553,0.0,0.0
1368,341.75,40.3075,41.4536,153.526,101.63,101.719,0.0103406,0.100222,20.8688,140.115,-0.00788257,0.0,0.0
1372,342.75,40.5396,41.5963,155.327,101.629,101.822,0.010304,0.100297,20.8689,140.125,-0.0170174,0.0,0.0
1376,343.75,40.2977,41.1819,153.689,101.627,101.734,0.010285,0.100133,20.8689,140.125,-0.00944485,0.0,0.0
1380,344.75,40.1347,41.3996,150.635,101.64,101.774,0.0102819,0.0998865,20.8689,140.115,-0.0117329,0.0,0.0
1384,345.75,40.4009,41.2999,152.574,101.632,101.727,0.0102916,0.0995201,20.8689,140.105,-0.00835235,0.0,0.0
1388,346.75,40.4019,41.3337,152.279,101.627,101.69,0.01031,0.0991225,20.8689,140.105,-0.00556452,0.0,0.0
1392,347.75,40.0468,41.3107,153.041,101.633,101.759,0.0103177,0.0988354,20.8689,140.115,-0.0111603,0.0,0.0
1396,348.75,39.8635,41.0294,157.547,101.629,101.732,0.0103072,0.0987089,20.8689,140.115,-0.00906962,0.0,0.0
1400,349.75,39.9567,40.8367,155.214,101.626,101.793,0.0102747,0.0986861,20.8697,140.125,-0.0147393,0.0,0.0
1404,350.75,39.9357,41.0315,152.933,101.621,101.76,0.0102517,0.0987063,20.8702,140.115,-0.0121858,0.0,0.0
1408,351.75,39.8953,40.7605,151.558,101.623,101.751,0.0102885,0.0989031,20.8709,140.125,-0.0111972,0.0,0.0
1412,352.75,40.178,40.8376,157.007,101.621,101.749,0.0103547,0.0990942,20.8721,140.095,-0.0112645,0.0,0.0
1416,353.75,39.8624,41.0268,155.846,101.625,101.73,0.0105041,0.0991638,20.8729,140.065,-0.00928342,0.0,0.0
1420,354.75,39.7056,40.9118,151.787,101.626,101.78,0.0106374,0.0991204,20.8734,140.045,-0.013513,0.0,0.0
1424,355.75,39.469,40.6025,151.858,101.624,101.765,0.0107248,0.0990022,20.8738,140.025,-0.0123906,0.0,0.0
1428,356.75,39.6079,40.6222,152.355,101.622,101.741,0.0107748,0.0988723,20.874,140.045,-0.0105364,0.0,0.0
1432,357.75,40.1851,40.5424,149.062,101.62,101.661,0.0108,0.0987651,20.8742,140.065,-0.00364929,0.0,0.0
1436,358.75,39.8418,40.6326,149.039,101.628,101.686,0.0108151,0.0987319,20.8743,140.035,-0.00510718,0.0,0.0
1440,359.75,39.8961,40.7241,150.723,101.617,101.76,0.0108154,0.0987364,20.8743,140.015,-0.012551,0.0,0.0
1444,360.75,39.8204,40.5829,153.28,101.626,101.741,0.0107922,0.0986827,20.8744,140.005,-0.0100959,0.0,0.0
1448,361.75,39.1487,40.5669,159.203,101.614,101.734,0.0107369,0.0986016,20.8746,139.995,-0.0106161,0.0,0.0
1452,362.75,39.7013,40.7289,151.935,101.621,101.691,0.010656,0.0985713,20.8749,139.965,-0.00618966,0.0,0.0
1456,363.75,39.6002,40.5832,156.092,101.602,101.725,0.010577,0.0985767,20.875,139.945,-0.0108711,0.0,0.0
1460,364.75,39.4802,40.161,149.783,101.603,101.688,0.0105178,0.0984906,20.8751,139.945,-0.00745718,0.0,0.0
1464,365.75,39.4984,40.2343,157.006,101.595,101.901,0.0104899,0.098397,20.8752,139.955,-0.0269226,0.0,0.0
1468,366.75,39.477,39.8972,148.271,101.615,101.644,0.0104854,0.0983355,20.8752,139.935,-0.00251477,0.0,0.0
1472,367.75,39.4862,40.0628,153.55,101.591,101.648,0.0105101,0.0982333,20.8752,139.915,-0.00501795,0.0,0.0
1476,368.75,38.8189,40.0112,151.291,101.592,101.647,0.0105324,0.0981495,20.8761,139.885,-0.00479464,0.0,0.0
1480,369.75,39.1499,39.8845,152.871,101.587,101.724,0.0105453,0.098109,20.8766,139.865,-0.0121088,0.0,0.0
1484,370.75,38.8836,39.5572,150.833,101.6,101.819,0.0105561,0.0980637,20.877,139.865,-0.0193079,0.0,0.0
1488,371.75,39.1484,39.9412,152.85,101.589,101.713,0.0105821,0.0979596,20.8766,139.875,-0.0109657,0.0,0.0
1492,372.75,39.3846,39.8421,153.48,101.583,101.692,0.0106203,0.0978914,20.8761,139.865,-0.00955817,0.0,0.0
1496,373.75,38.6015,39.378,149.992,101.596,101.808,0.0106557,0.0978728,20.8758,139.875,-0.018676,0.0,0.0
1500,374.75,39.2091,40.0718,158.089,101.586,101.69,0.0106874,0.0978377,20.8757,139.825,-0.00914873,0.0,0.0
1504,375.75,39.0001,40.0298,154.992,101.58,101.632,0.0106915,0.0977589,20.8753,139.815,-0.00454835,0.0,0.0
1508,376.75,39.1824,40.0734,154.574,101.584,101.641,0.0106676,0.0975763,20.8749,139.805,-0.00499017,0.0,0.0
1512,377.75,39.1201,39.1692,153.812,101.585,101.669,0.0106171,0.0973778,20.8746,139.815,-0.00741389,0.0,0.0
1516,378.75,38.8563,39.8042,151.358,101.582,101.738,0.0105518,0.0971167,20.8744,139.795,-0.0137418,0.0,0.0
1520,379.75,38.8415,39.8744,151.902,101.583,101.618,0.0104928,0.0968668,20.8743,139.764,-0.0030991,0.0,0.0