File: 01_Data/Masonite_Board/Cone/Masonite_Cone_HF15Scan_230106_R1.csv
Names,Time,Stack TC,Smoke TC,Exh Press,Smoke Comp,Smoke Meas,CO Meter,CO2 Meter,O2 Meter,Sample Mass,Ext Coeff,Start Test,Flame Verif
Chan Gain,,500,500,1,1,1,1,1,1,1,1,1.0,1.0
Offset,,0,0,0.303564,0,0,0,0,0,0,0,0.0,0.0
Gain,,1,1,25.011,13.362,14.5452,1,1,1,1.00089,1.1066,1.0,1.0
Units,sec,C,C,Pa,%,%,%,%,%,g,/m,,
Baseline,,20.503,21.39,150.283,100.704,100.728,0.000358782,0.0494679,20.9641,-443.383,-0.00229613,,
7,1.5,17.9022,19.3551,152.469,99.1373,99.2173,0.000268819,0.0472047,20.9636,181.102,-0.00783255,0.0,0.0
14,3.25,18.7559,19.3892,149.65,99.1243,99.1827,0.000372916,0.0480036,20.9628,181.062,-0.00572214,0.0,0.0
21,5,18.1225,19.2443,151.087,99.1235,99.1521,0.000492818,0.0491949,20.9623,181.002,-0.00280364,0.0,0.0
28,6.75,19.0855,19.7919,150.189,99.1442,99.1787,0.000525617,0.050855,20.9634,180.922,-0.00337488,0.0,0.0
35,8.5,18.9668,19.809,147.207,99.1838,99.2524,0.000528386,0.0525942,20.9621,180.932,-0.00671157,0.0,0.0
42,10.25,18.9699,19.8456,147.539,99.216,99.2573,0.000508154,0.0538407,20.9604,180.912,-0.00403761,0.0,0.0
49,12,18.8257,19.6039,146.927,99.2804,99.295,0.000446779,0.0548316,20.959,180.952,-0.00142458,0.0,0.0
56,13.75,18.8503,20.054,147.42,99.3506,99.3776,0.000385934,0.0560126,20.9581,180.942,-0.00263754,0.0,0.0
63,15.5,18.9894,20.0403,148.909,99.435,99.4823,0.000389315,0.0574684,20.9558,180.922,-0.00462109,0.0,0.0
70,17.25,18.7049,19.9437,153.744,99.5145,99.5587,0.000466951,0.059144,20.9531,180.872,-0.00430851,0.0,0.0
77,19,19.0616,19.7069,155.387,99.6295,99.6528,0.000597294,0.0608209,20.9511,180.902,-0.00226889,0.0,0.0
84,20.75,19.1607,20.1308,149.849,99.7204,99.7149,0.000693099,0.0625947,20.9484,180.892,0.000535753,0.0,0.0
91,22.5,18.7016,19.736,152.285,99.815,99.8357,0.000729933,0.0649417,20.9469,180.872,-0.00200615,0.0,0.0
98,24.25,18.7986,19.7277,149.538,99.8815,99.8983,0.000764744,0.0669897,20.945,180.832,-0.00162827,0.0,0.0
105,26,18.4785,19.7785,148.438,99.9659,99.9351,0.000816651,0.0678828,20.9434,180.872,0.00299313,0.0,0.0
112,27.75,18.8126,19.8378,148.207,100.056,100.086,0.000800582,0.0671932,20.942,180.852,-0.00286557,0.0,0.0
119,29.5,18.8763,19.8038,150.902,100.13,100.193,0.000724554,0.065416,20.9415,180.832,-0.00612045,0.0,0.0
126,31.25,18.6997,19.6716,151.044,100.19,100.183,0.000600121,0.063238,20.9433,180.822,0.000717417,0.0,0.0
133,33,18.8941,19.3244,146.951,100.223,100.194,0.000409139,0.0610852,20.9451,180.782,0.00280225,0.0,0.0
140,34.75,18.6282,19.6749,148.513,100.283,100.313,0.000302642,0.0587832,20.9478,180.802,-0.00291245,0.0,0.0
147,36.5,19.2088,19.5047,151.704,100.329,100.389,0.00029386,0.0575387,20.9502,180.782,-0.00575571,0.0,0.0
154,38.25,19.6803,20.0555,149.235,100.359,100.44,0.000332238,0.0579254,20.9517,180.772,-0.00789335,0.0,0.0
161,40,19.3724,19.7629,150.553,100.381,100.386,0.000445844,0.0602646,20.9523,180.732,-0.000450148,0.0,0.0
168,41.75,18.7692,19.9195,147.573,100.396,100.421,0.000567312,0.0625976,20.9511,180.762,-0.00242051,0.0,0.0
175,43.5,19.0228,19.5735,147.797,100.422,100.465,0.000593517,0.0629973,20.9482,180.732,-0.0041447,0.0,0.0
182,45.25,19.0244,19.6377,151.937,100.423,100.519,0.000500743,0.0618329,20.9462,180.732,-0.00925711,0.0,0.0
189,47,19.0146,19.4891,152.232,100.415,100.502,0.000365073,0.0597054,20.9459,180.702,-0.00841277,0.0,0.0
196,48.75,19.2283,19.9055,147.205,100.38,100.418,0.000279368,0.0577554,20.9476,180.672,-0.0036145,0.0,0.0
203,50.5,19.1089,20.2681,148.668,100.37,100.43,0.000242194,0.056627,20.9512,180.682,-0.00571982,0.0,0.0
210,52.25,19.2375,19.9117,153.628,100.34,100.45,0.00022515,0.0563093,20.9538,180.672,-0.0106547,0.0,0.0
217,54,19.3035,19.2517,149.149,100.302,100.326,0.000313356,0.0566227,20.9553,180.672,-0.00230651,0.0,0.0
224,55.75,19.0386,19.7541,147.99,100.251,100.341,0.000407594,0.0566582,20.9559,180.611,-0.00869711,0.0,0.0
231,57.5,18.8489,20.1577,149.293,100.208,100.232,0.000428455,0.0563877,20.955,180.631,-0.00227468,0.0,0.0
238,59.25,19.129,19.8734,148.382,100.143,100.223,0.000380311,0.0561501,20.9545,180.621,-0.00777985,0.0,0.0
245,61,18.591,19.6148,152.334,100.093,100.152,0.000299467,0.0560114,20.9555,180.601,-0.0057615,0.0,0.0
252,62.75,19.0337,19.5494,146.632,100.053,100.099,0.00028393,0.0559862,20.956,180.571,-0.00447406,0.0,0.0
259,64.5,19.1399,19.9758,147.949,99.9969,100.091,0.000327852,0.0559175,20.955,180.581,-0.00911986,0.0,0.0
266,66.25,19.2592,20.0951,153.886,99.9643,99.9857,0.0003616,0.0560301,20.9545,180.561,-0.00208023,0.0,0.0
273,68,18.9798,19.8706,150.776,99.9052,99.9857,0.000359912,0.0563503,20.9543,180.551,-0.00782328,0.0,0.0
280,69.75,19.2858,19.9463,150.206,99.8693,99.9617,0.000346149,0.0567607,20.9542,180.621,-0.00898261,0.0,0.0
287,71.5,19.1256,20.1994,148.919,99.8281,99.8619,0.000281693,0.0570268,20.9541,180.441,-0.00328344,0.0,0.0
294,73.25,19.2329,20.2289,150.222,99.7979,99.782,0.000195409,0.0568469,20.9541,180.481,0.00155164,0.0,0.0
301,75,18.7541,19.4498,148.291,99.8676,99.8907,0.000117223,0.0558931,20.9542,180.481,-0.00224227,0.0,0.0
308,76.75,18.7619,20.1074,150.896,100.021,100.021,8.91305e-05,0.0541047,20.9546,180.441,5.90153e-05,0.0,0.0
315,78.5,18.7599,19.9573,150.011,100.179,100.219,0.000118571,0.0525013,20.956,180.361,-0.0039149,0.0,0.0
322,80.25,19.1975,19.9128,152.688,100.286,100.261,0.000170284,0.0512028,20.9578,180.361,0.00242974,0.0,0.0
329,82,18.9401,19.5808,153.429,100.401,100.409,0.00021807,0.050685,20.96,180.351,-0.000828566,0.0,0.0
336,83.75,18.9562,19.8714,147.836,100.503,100.471,0.000217248,0.0508938,20.9611,180.351,0.00309955,0.0,0.0
343,85.5,19.3911,20.2375,148.533,100.572,100.578,0.000187793,0.0514364,20.9609,180.301,-0.000580336,0.0,0.0
350,87.25,18.9953,19.9975,148.214,100.615,100.601,0.000158712,0.051864,20.96,180.271,0.00136652,0.0,0.0
357,89,19.2124,20.1931,152.037,100.645,100.617,0.000163363,0.0516612,20.9586,180.301,0.00269235,0.0,0.0
364,90.75,19.0609,19.7549,147.537,100.669,100.63,0.000208907,0.0509617,20.9579,180.271,0.00381327,0.0,0.0
371,92.5,18.8106,20.4929,151.992,100.654,100.615,0.000252145,0.0503983,20.9584,180.271,0.0037323,0.0,0.0
378,94.25,19.3248,20.0721,151.354,100.648,100.588,0.000323642,0.0502318,20.9602,180.191,0.00571356,0.0,0.0
385,96,19.0162,20.4742,150.992,100.604,100.527,0.000420686,0.0505832,20.9609,180.221,0.0073776,0.0,0.0
392,97.75,19.1584,20.1239,151.286,100.556,100.523,0.000457331,0.0508215,20.961,180.181,0.00320251,0.0,0.0
399,99.5,19.5423,20.2102,149.676,100.499,100.407,0.000461413,0.0507451,20.9611,180.161,0.00888297,0.0,0.0
406,101.25,19.7408,19.7591,150.217,100.408,100.304,0.000490861,0.0503856,20.9601,180.171,0.0101396,0.0,0.0
413,103,19.2541,20.6738,151.029,100.321,100.149,0.000594868,0.0502583,20.9604,180.121,0.0166639,0.0,0.0
420,104.75,19.3045,20.7211,149.325,100.195,100.032,0.000592972,0.0507068,20.9607,180.111,0.0158264,0.0,0.0
427,106.5,19.4309,20.1279,150.322,100.22,100.141,0.000431109,0.0519514,20.9609,180.081,0.00764817,0.0,0.0
434,108.25,19.7312,20.1064,149.722,100.279,100.178,0.000327262,0.0532364,20.9595,180.051,0.00975695,0.0,0.0
441,110,19.9453,20.3158,145.43,100.33,100.261,0.00033057,0.0536782,20.9572,179.971,0.00665258,0.0,0.0
448,111.75,19.7808,20.3877,149.959,100.406,100.334,0.0003391,0.0530171,20.9555,179.971,0.00693936,0.0,0.0
455,113.5,19.3451,20.376,154.073,100.492,100.403,0.000371319,0.0515076,20.9555,179.951,0.00860319,0.0,0.0
462,115.25,20.1898,20.0282,148.959,100.565,100.461,0.000433036,0.0501413,20.957,179.911,0.00998815,0.0,0.0
469,117,19.261,20.173,149.209,100.646,100.572,0.000514819,0.0489445,20.9587,179.841,0.00714403,0.0,0.0
476,118.75,19.4659,20.8274,149.225,100.713,100.563,0.000567914,0.0477992,20.9599,179.871,0.014485,0.0,0.0
483,120.5,19.388,20.6521,149.855,100.784,100.675,0.000566486,0.0470031,20.9614,179.871,0.0105731,0.0,0.0
490,122.25,19.8526,20.1042,147.973,100.855,100.755,0.000526728,0.0465043,20.9624,179.841,0.00961707,0.0,0.0
497,124,19.6155,20.5516,145.538,100.911,100.922,0.000381293,0.0459537,20.9642,179.851,-0.00107044,0.0,0.0
504,125.75,19.6669,20.3272,146.496,100.93,100.812,0.000147846,0.0455126,20.965,179.771,0.0114064,0.0,0.0
511,127.5,19.7182,20.5141,148.309,100.983,100.826,-1.95448e-05,0.0452309,20.9654,179.771,0.0151401,0.0,0.0
518,129.25,19.7505,20.2719,149.637,101.002,100.815,-5.72226e-06,0.0449891,20.9655,179.781,0.0179646,0.0,0.0
525,131,19.2131,20.8598,153.016,101.022,100.817,0.000125313,0.0447966,20.9663,179.751,0.0197951,0.0,0.0
532,132.75,19.6282,20.569,152.4,101.02,100.89,0.000261884,0.0447192,20.9673,179.661,0.0125078,0.0,0.0
539,134.5,20.0735,20.8418,149.1,101.044,100.907,0.000340612,0.0446001,20.9677,179.641,0.0131596,0.0,0.0
546,136.25,19.7426,20.5553,145.916,101.053,100.843,0.000406379,0.0444166,20.9679,179.601,0.0201727,0.0,0.0
553,138,19.0398,20.3012,147.736,101.069,100.869,0.000496426,0.0444521,20.968,179.541,0.0192235,0.0,0.0
560,139.75,19.656,20.3254,148.448,101.06,100.838,0.00051554,0.044499,20.968,179.551,0.0213517,0.0,0.0
567,141.5,19.8269,20.5846,147.133,101.045,100.903,0.000441687,0.0446293,20.9681,179.53,0.0136623,0.0,0.0
574,143.25,19.5282,20.527,152.709,101.059,100.888,0.000325853,0.0447042,20.9681,179.49,0.0164456,0.0,0.0
581,145,19.3512,20.716,152.705,101.046,100.863,0.00022196,0.0448141,20.9681,179.46,0.0175846,0.0,0.0
588,146.75,19.2287,20.4244,147.052,101.037,100.848,0.000180838,0.04506,20.9681,179.48,0.0182141,0.0,0.0
595,148.5,19.1315,20.5345,151.194,101.027,100.813,0.000183786,0.0453028,20.9668,179.33,0.0205688,0.0,0.0
602,150.25,19.7999,20.5501,148.262,101.034,100.866,0.000179481,0.0454947,20.9663,179.31,0.0161499,0.0,0.0
609,152,19.5395,20.6191,149.224,101.012,100.924,0.000144949,0.0457055,20.966,179.3,0.0085211,0.0,0.0
616,153.75,19.539,20.1825,152.096,101.008,100.786,8.7892e-05,0.0459043,20.9659,179.33,0.0214163,0.0,0.0
623,155.5,19.2475,20.0132,148.643,100.987,100.761,9.96243e-05,0.0460597,20.9658,179.28,0.0218124,0.0,0.0
630,157.25,19.6569,20.2653,147.297,100.974,100.778,0.000169984,0.0461878,20.9658,179.29,0.018847,0.0,0.0
637,159,19.3012,20.2422,150.033,100.964,100.812,0.000258406,0.0461281,20.9657,179.28,0.0145798,0.0,0.0
644,160.75,19.1355,20.4105,150.428,100.95,100.73,0.000275721,0.0461693,20.9657,179.28,0.0211958,0.0,0.0
651,162.5,19.4421,19.6786,146.771,100.937,100.742,0.000308518,0.0463287,20.9657,179.22,0.0187465,0.0,0.0
658,164.25,19.4229,20.3196,149.511,100.919,100.727,0.000352498,0.0464176,20.9657,179.16,0.0185571,0.0,0.0
665,166,19.3014,19.8414,147.361,100.914,100.675,0.000335222,0.0464651,20.9657,179.15,0.0230073,0.0,0.0
672,167.75,19.4731,20.4369,147.517,100.906,100.679,0.00020622,0.0463939,20.9657,179.12,0.0218366,0.0,0.0
679,169.5,19.3664,20.7982,150.067,100.913,100.7,2.95563e-05,0.0463196,20.9655,179.04,0.0204972,0.0,0.0
686,171.25,19.1572,20.3834,149.744,100.889,100.654,-0.000105517,0.0462061,20.9651,179.04,0.0226321,0.0,0.0
693,173,19.0613,20.1839,151.171,100.888,100.703,-0.000130633,0.0462549,20.9649,178.97,0.0178006,0.0,0.0
700,174.75,19.4021,19.9527,149.714,100.877,100.582,-3.58438e-05,0.0463548,20.9648,179.06,0.0284719,0.0,0.0
707,176.5,19.8653,20.2359,150.724,100.874,100.619,4.91948e-05,0.0463027,20.9647,179.04,0.0245218,0.0,0.0
714,178.25,18.9329,20.3468,145.521,100.856,100.664,4.71502e-05,0.0462224,20.9647,178.98,0.0185063,0.0,0.0
721,180,19.4002,20.239,148.442,100.864,100.611,-4.44925e-05,0.0461915,20.9647,178.98,0.0243925,0.0,0.0
728,181.75,19.4557,20.4759,149.96,100.865,100.653,-9.59379e-05,0.0462795,20.9647,178.97,0.0204395,0.0,0.0
735,183.5,19.9001,20.4596,152.327,100.844,100.665,3.13435e-05,0.0464117,20.9647,178.97,0.0172854,0.0,0.0
742,185.25,19.6031,20.3091,145.905,100.855,100.527,0.000193892,0.046474,20.9647,178.94,0.031627,0.0,0.0
749,187,19.3545,20.6553,153.392,100.849,100.644,0.000371808,0.0464491,20.9647,178.91,0.0197258,0.0,0.0
756,188.75,19.7454,21.032,146.641,100.867,100.582,0.00053944,0.046404,20.9647,178.95,0.0274519,0.0,0.0
763,190.5,19.8161,20.0997,148.053,100.884,100.636,0.000618832,0.0464187,20.9647,178.9,0.0239562,0.0,0.0
770,192.25,19.7541,20.3914,151.465,100.898,100.59,0.000631616,0.0465046,20.9652,178.88,0.029741,0.0,0.0
777,194,19.287,20.2585,149.665,100.897,100.66,0.00063998,0.0466018,20.9658,178.86,0.0227752,0.0,0.0
784,195.75,19.1049,19.9393,150.572,100.909,100.607,0.000572734,0.0467128,20.9661,178.88,0.0291342,0.0,0.0
791,197.5,19.3328,20.658,150.913,100.923,100.656,0.000457157,0.0467147,20.9663,178.83,0.0256321,0.0,0.0
798,199.25,19.2367,20.4689,148.929,100.944,100.685,0.000307145,0.0466471,20.9663,178.77,0.0249327,0.0,0.0
805,201,19.2799,20.474,151.312,100.961,100.65,0.00013228,0.0466613,20.9664,178.81,0.0299175,0.0,0.0
812,202.75,19.6772,20.8283,150.291,100.958,100.732,6.26905e-05,0.0467331,20.9664,178.8,0.021765,0.0,0.0
819,204.5,19.078,20.385,149.076,100.986,100.766,0.000149219,0.0467756,20.9664,178.85,0.0211,0.0,0.0
826,206.25,19.535,20.3219,151.438,100.995,100.75,0.000293576,0.046901,20.9664,178.83,0.0235868,0.0,0.0
833,208,19.1396,20.3475,149.592,100.998,100.675,0.000395072,0.0468731,20.9664,178.79,0.0310065,0.0,0.0
840,209.75,19.201,20.6665,152.68,101.007,100.702,0.000421716,0.0467785,20.9664,178.73,0.029343,0.0,0.0
847,211.5,19.5432,20.5436,154.82,101,100.711,0.000352927,0.0469152,20.9664,178.69,0.027857,0.0,0.0
854,213.25,19.0152,20.7202,152.44,101.018,100.777,0.000272921,0.0470753,20.9664,178.75,0.0232116,0.0,0.0
861,215,19.6254,20.4412,147.794,101.04,100.786,0.000216131,0.0471195,20.9664,178.72,0.0243867,0.0,0.0
868,216.75,19.4086,20.6103,148.834,101.032,100.699,0.000150879,0.0471599,20.9656,178.69,0.0320261,0.0,0.0
875,218.5,19.3229,20.3829,149.793,101.032,100.713,9.02248e-05,0.0472083,20.9644,178.63,0.0307019,0.0,0.0
882,220.25,19.0585,20.3122,147.429,101.03,100.663,1.92288e-05,0.0472195,20.9639,178.67,0.0353426,0.0,0.0
889,222,19.4005,20.4147,149.512,101.046,100.709,-3.88844e-05,0.0471025,20.9636,178.69,0.0324159,0.0,0.0
896,223.75,19.2372,20.7391,148.107,101.042,100.665,-2.38517e-05,0.0471246,20.9635,178.69,0.0363433,0.0,0.0
903,225.5,19.7095,20.2707,148.557,101.024,100.514,3.5202e-05,0.0472276,20.9634,178.65,0.0490612,0.0,0.0
910,227.25,19.662,20.4656,150.896,101.022,100.649,8.9344e-05,0.0472828,20.9634,178.64,0.0359248,0.0,0.0
917,229,19.9349,20.1911,147.752,101.011,100.645,0.000163279,0.0471037,20.9634,178.65,0.0352918,0.0,0.0
924,230.75,19.2117,20.2961,149.43,101.01,100.605,0.000245833,0.0470453,20.9634,178.6,0.038946,0.0,0.0
931,232.5,19.9823,20.3407,148.368,100.976,100.654,0.00029723,0.0470638,20.9634,178.63,0.0310653,0.0,0.0
938,234.25,19.4869,20.3607,153.121,100.94,100.64,0.000319728,0.0471174,20.9634,178.55,0.0288596,0.0,0.0
945,236,19.4949,20.4694,147.587,100.915,100.495,0.000321817,0.0471045,20.9634,178.57,0.0404385,0.0,0.0
952,237.75,19.0012,20.3709,147.078,100.892,100.465,0.000423983,0.0471042,20.9634,178.61,0.041161,0.0,0.0
959,239.5,19.4666,20.1026,150.56,100.832,100.477,0.000565034,0.0471272,20.9636,178.61,0.0343129,0.0,0.0
966,241.25,19.4998,20.4743,149.16,100.792,100.47,0.000642561,0.0471373,20.9641,178.53,0.0310687,0.0,0.0
973,243,19.4387,20.1493,151.9,100.759,100.513,0.000610277,0.0471911,20.9637,178.55,0.023768,0.0,0.0
980,244.75,19.7363,20.7929,149.881,100.731,100.377,0.000562721,0.0472133,20.9635,178.55,0.0341861,0.0,0.0
987,246.5,19.5892,20.4386,152.01,100.671,100.271,0.000553096,0.0472555,20.9635,178.52,0.0386694,0.0,0.0
994,248.25,19.6428,20.3671,150.821,100.633,100.176,0.000471617,0.0472249,20.9634,178.51,0.0441725,0.0,0.0
1001,250,19.5816,19.9019,154.506,100.583,100.143,0.00031969,0.0472719,20.9634,178.49,0.0425171,0.0,0.0
1008,251.75,19.5969,20.553,149.129,100.554,100.138,0.000157938,0.0472192,20.9636,178.51,0.0402356,0.0,0.0
1015,253.5,19.4244,20.5407,150.986,100.503,100.018,9.72265e-05,0.0472618,20.965,178.51,0.0469022,0.0,0.0
1022,255.25,19.4048,20.4723,145.565,100.452,100.008,0.000132651,0.0472001,20.9646,178.49,0.0430044,0.0,0.0
1029,257,19.6802,20.2673,150.968,100.403,99.9187,0.000180082,0.0472564,20.9644,178.45,0.0469033,0.0,0.0
1036,258.75,19.6184,20.6095,149.736,100.37,99.8783,0.000196821,0.047335,20.9643,178.5,0.0476345,0.0,0.0
1043,260.5,19.3246,21.0873,149.028,100.34,99.9546,0.000170761,0.0473336,20.9643,178.49,0.037337,0.0,0.0
1050,262.25,19.6209,20.705,145.699,100.296,99.7757,0.000180408,0.0473855,20.9643,178.47,0.0505037,0.0,0.0
1057,264,19.1618,20.9673,151.129,100.26,99.8317,0.000228296,0.0474559,20.9641,178.44,0.0415112,0.0,0.0
1064,265.75,19.4316,20.5189,148.55,100.229,99.7602,0.000208093,0.0474269,20.9641,178.48,0.0455409,0.0,0.0
1071,267.5,19.6275,20.4556,153.942,100.207,99.7624,0.000135631,0.0475271,20.9643,178.48,0.0431922,0.0,0.0
1078,269.25,19.053,20.4913,152.59,100.187,99.635,0.000161094,0.0475316,20.964,178.46,0.0536596,0.0,0.0
1085,271,19.5426,20.5643,149.114,100.155,99.5982,0.000233424,0.0477177,20.9638,178.45,0.054128,0.0,0.0
1092,272.75,19.8555,20.4365,152.674,100.174,99.6714,0.000286183,0.0478611,20.9637,178.399,0.0488102,0.0,0.0
1099,274.5,19.3833,20.9325,149.355,100.25,99.7788,0.000389809,0.047853,20.9639,178.419,0.0457021,0.0,0.0
1106,276.25,19.3328,20.1808,150.765,100.313,99.7118,0.000542879,0.0478863,20.965,178.43,0.0583813,0.0,0.0
1113,278,20.0533,20.2561,152.528,100.366,99.7962,0.0006184,0.0478722,20.9656,178.399,0.0552637,0.0,0.0
1120,279.75,19.8679,20.5525,148.523,100.413,99.8441,0.000603646,0.0480647,20.9658,178.369,0.0551751,0.0,0.0
1127,281.5,19.3492,20.7339,150.919,100.45,99.936,0.000575677,0.0481766,20.9657,178.369,0.0497934,0.0,0.0
1134,283.25,19.5937,20.9385,149.714,100.496,99.9267,0.00051285,0.0485496,20.9646,178.41,0.0551901,0.0,0.0
1141,285,20.0491,20.4715,146.962,100.541,99.9023,0.000459951,0.0489631,20.9641,178.349,0.0618544,0.0,0.0
1148,286.75,19.7833,20.125,147.108,100.569,99.9023,0.00048101,0.0492519,20.9638,178.349,0.0646101,0.0,0.0
1155,288.5,19.5616,20.9263,150.206,100.589,100.03,0.000539871,0.0493757,20.9624,178.349,0.0540854,0.0,0.0
1162,290.25,19.5245,20.4639,149.055,100.61,99.9386,0.000600328,0.0492483,20.9615,178.299,0.065009,0.0,0.0
1169,292,19.6506,20.5259,149.023,100.624,100.037,0.000627524,0.048998,20.9611,178.279,0.0567398,0.0,0.0
1176,293.75,19.4684,20.7676,150.285,100.637,99.9604,0.000644456,0.0487141,20.962,178.289,0.0654538,0.0,0.0
1183,295.5,19.426,20.149,151.071,100.631,100.022,0.000694793,0.0484974,20.9625,178.249,0.0588748,0.0,0.0
1190,297.25,19.557,20.7663,147.687,100.641,99.8969,0.000732929,0.0481826,20.9628,178.259,0.0720525,0.0,0.0
1197,299,19.4357,20.6648,149.045,100.624,100.056,0.000734437,0.047935,20.9629,178.299,0.0550106,0.0,0.0
1204,300.75,19.8636,20.1915,146.915,100.621,99.9573,0.000721074,0.0477467,20.963,178.319,0.0642216,0.0,0.0
1211,302.5,19.8141,20.3524,149.575,100.594,99.9941,0.00067989,0.0476924,20.963,178.289,0.0580466,0.0,0.0
1218,304.25,19.3499,20.7604,152.298,100.569,99.9293,0.000634143,0.0475864,20.963,178.289,0.0619004,0.0,0.0
1225,306,19.4053,20.0063,154.233,100.548,99.9196,0.000596945,0.0477377,20.963,178.269,0.0608804,0.0,0.0
1232,307.75,19.6383,20.9785,149.522,100.516,99.7522,0.000552145,0.0479953,20.963,178.249,0.0740807,0.0,0.0
1239,309.5,19.5745,20.5261,147.634,100.477,99.7602,0.000506894,0.0481774,20.963,178.249,0.0695218,0.0,0.0
1246,311.25,19.8021,20.5264,151.56,100.443,99.7336,0.000375928,0.0482018,20.9634,178.199,0.0688048,0.0,0.0
1253,313,19.6014,20.6826,146.475,100.414,99.8126,0.00029122,0.0482254,20.9635,178.259,0.0583583,0.0,0.0
1260,314.75,19.2689,20.6552,150.522,100.375,99.6923,0.000272862,0.0482561,20.9636,178.259,0.066279,0.0,0.0
1267,316.5,19.5245,20.6956,153.901,100.319,99.6914,0.000263217,0.0481692,20.9636,178.229,0.0609609,0.0,0.0
1274,318.25,19.5455,20.9818,150.526,100.246,99.4535,0.000219307,0.0480383,20.9637,178.189,0.0770901,0.0,0.0
1281,320,19.473,20.7662,149.831,100.176,99.3509,0.000217009,0.0478097,20.9637,178.219,0.0802696,0.0,0.0
1288,321.75,19.7183,20.7857,151.366,100.1,99.2022,0.000364946,0.0477098,20.9637,178.189,0.0874569,0.0,0.0
1295,323.5,19.956,20.3021,158.261,100.018,99.2156,0.000510495,0.0476953,20.9637,178.179,0.0782036,0.0,0.0
1302,325.25,19.4837,20.5009,150.41,99.9317,99.0868,0.000597672,0.0475693,20.9637,178.189,0.082412,0.0,0.0
1309,327,19.9153,20.417,151.219,99.8228,98.8813,0.000592436,0.0474548,20.9637,178.139,0.0919845,0.0,0.0
1316,328.75,19.3936,20.208,150.087,99.7792,98.8858,0.00052632,0.0475406,20.9637,178.179,0.0873055,0.0,0.0
1323,330.5,19.6478,20.2761,148.757,99.7951,98.971,0.000439046,0.0476016,20.9637,178.129,0.08049,0.0,0.0
1330,332.25,19.6474,20.6447,147.445,99.8122,99.0282,0.000359333,0.0476299,20.9632,178.159,0.0765414,0.0,0.0
1337,334,19.6999,20.4746,149.538,99.8289,98.8063,0.000304027,0.0476434,20.9633,178.069,0.0999465,0.0,0.0
1344,335.75,19.8428,20.8537,148.211,99.8636,99.042,0.000257095,0.0477551,20.9644,178.089,0.0801881,0.0,0.0
1351,337.5,19.7724,20.5957,151.621,99.9052,98.8454,0.000206342,0.0477498,20.9649,178.099,0.103522,0.0,0.0
1358,339.25,19.8332,20.4996,149.923,99.9463,98.7286,0.000188374,0.0478017,20.9651,178.089,0.118994,0.0,0.0
1365,341,19.7428,20.6852,149.206,99.9985,99.0021,0.000203046,0.048005,20.9653,178.099,0.0972157,0.0,0.0
1372,342.75,19.7717,20.4747,149.171,100.04,99.018,0.000236026,0.0481725,20.9653,178.029,0.0996843,0.0,0.0
1379,344.5,19.7783,20.3807,151.665,100.09,98.9319,0.000313026,0.0483547,20.9653,178.009,0.112997,0.0,0.0
1386,346.25,19.5641,20.781,147.598,100.141,99.1352,0.000360657,0.0483899,20.9654,178.059,0.0980108,0.0,0.0
1393,348,19.683,20.8815,150.005,100.209,98.896,0.000352931,0.0484718,20.9657,178.029,0.127986,0.0,0.0
1400,349.75,19.5363,20.773,149.664,100.258,99.137,0.000341669,0.0484982,20.9647,177.969,0.109176,0.0,0.0
1407,351.5,19.5601,20.7922,154.43,100.305,99.0598,0.000396343,0.0483785,20.9643,177.989,0.12124,0.0,0.0
1414,353.25,19.7714,20.5735,148.265,100.344,99.2471,0.000538272,0.0483391,20.9653,177.989,0.10665,0.0,0.0
1421,355,19.8902,20.5078,148.13,100.357,99.125,0.000712773,0.0485082,20.9658,177.969,0.119938,0.0,0.0
1428,356.75,19.5319,20.7321,148.032,100.356,99.3221,0.000830181,0.0486017,20.966,177.909,0.100539,0.0,0.0
1435,358.5,19.2357,20.7197,152.973,100.346,99.2821,0.00078442,0.0486499,20.9637,177.929,0.103419,0.0,0.0
1442,360.25,19.4283,20.5599,146.366,100.321,99.2533,0.000662443,0.0486901,20.9623,177.929,0.103833,0.0,0.0
1449,362,19.4526,20.9089,151.846,100.28,99.1494,0.000605294,0.0485712,20.9617,177.869,0.11009,0.0,0.0
1456,363.75,19.605,20.732,146.349,100.235,99.0669,0.000687721,0.0483937,20.9614,177.859,0.113834,0.0,0.0
1463,365.5,20.0055,20.6489,149.841,100.171,98.9887,0.000735049,0.048393,20.9621,177.809,0.11529,0.0,0.0
1470,367.25,19.2774,20.5571,148.797,100.087,98.7379,0.000657672,0.0484161,20.9628,177.799,0.13177,0.0,0.0
1477,369,19.6614,20.6496,154.226,99.9985,98.6629,0.000515775,0.0483496,20.9632,177.859,0.130523,0.0,0.0
1484,370.75,20.0364,20.5243,144.833,99.917,98.6301,0.000468761,0.048322,20.9633,177.839,0.125835,0.0,0.0
1491,372.5,19.9745,20.7979,148.495,99.8122,98.2954,0.000617178,0.048399,20.9634,177.759,0.148644,0.0,0.0
1498,374.25,19.1999,20.7388,146.965,99.7053,98.3717,0.000821135,0.0485543,20.9634,177.759,0.130712,0.0,0.0
1505,376,19.7701,20.4777,148.983,99.6075,98.3575,0.00101265,0.048646,20.9635,177.729,0.12258,0.0,0.0
1512,377.75,20.1537,20.7818,150.643,99.4998,97.8506,0.00110986,0.0486418,20.9635,177.739,0.162241,0.0,0.0
1519,379.5,20.0358,20.2783,149.777,99.3787,97.8453,0.00108655,0.0486047,20.9628,177.689,0.150948,0.0,0.0
1526,381.25,19.975,20.6962,151.489,99.2756,97.903,0.000996182,0.048722,20.9626,177.669,0.135142,0.0,0.0
1533,383,19.891,21.0009,147.893,99.2132,97.5861,0.000933948,0.0487959,20.9626,177.689,0.160515,0.0,0.0
1540,384.75,19.8844,20.6926,153.02,99.1569,97.7472,0.00094539,0.0488834,20.9626,177.679,0.138993,0.0,0.0
1547,386.5,20.1989,21.1014,150.152,99.1104,97.405,0.000993918,0.0491114,20.9627,177.599,0.168487,0.0,0.0
1554,388.25,19.7439,20.8098,151.215,99.066,97.4587,0.00100768,0.0491903,20.9627,177.579,0.158782,0.0,0.0
1561,390,20.2145,21.0332,148.368,99.0655,97.7223,0.000945614,0.049134,20.9627,177.629,0.132516,0.0,0.0
1568,391.75,19.7004,21.0133,147.895,99.0863,97.5896,0.00086132,0.0491612,20.9627,177.629,0.147746,0.0,0.0
1575,393.5,19.9858,20.6689,149.098,99.1336,97.4937,0.000793383,0.0491102,20.9627,177.569,0.16192,0.0,0.0
1582,395.25,20.1519,20.2907,148.131,99.2099,97.5856,0.000661419,0.0492025,20.9627,177.509,0.160241,0.0,0.0
1589,397,19.7842,20.821,149.269,99.3025,97.8049,0.000553952,0.0493678,20.9627,177.459,0.147505,0.0,0.0
1596,398.75,19.7714,20.7472,150.083,99.4639,97.8156,0.000577383,0.0493928,20.9627,177.459,0.16222,0.0,0.0
1603,400.5,19.7048,21.0801,149.811,99.5659,97.875,0.000735715,0.049433,20.962,177.519,0.166263,0.0,0.0
1610,402.25,19.8733,21.096,146.559,99.6943,98.1298,0.00088497,0.049345,20.9611,177.519,0.153541,0.0,0.0
1617,404,19.5243,20.4074,149.782,99.8309,97.9492,0.000950047,0.0493561,20.961,177.449,0.184721,0.0,0.0
1624,405.75,19.7715,20.6849,148.736,99.9851,98.2155,0.000925265,0.049359,20.9622,177.439,0.173338,0.0,0.0
1631,407.5,19.8587,21.1226,149.237,100.147,98.2364,0.000815497,0.0493886,20.9628,177.419,0.18702,0.0,0.0
1638,409.25,19.5728,20.9757,150.557,100.274,98.4072,0.000738918,0.049352,20.9631,177.369,0.182432,0.0,0.0
1645,411,19.5388,20.8853,147.619,100.4,98.7055,0.000823763,0.0493589,20.9632,177.349,0.165243,0.0,0.0
1652,412.75,19.24,20.8242,150.302,100.543,98.8267,0.00106846,0.0494136,20.9633,177.278,0.167161,0.0,0.0
1659,414.5,19.8337,20.2927,149.451,100.679,98.7104,0.00126335,0.0495472,20.9633,177.268,0.191654,0.0,0.0
1666,416.25,19.5113,20.3897,147.649,100.779,98.8804,0.00141116,0.0496928,20.9633,177.288,0.184654,0.0,0.0
1673,418,19.8327,20.2261,152.064,100.87,99.208,0.00145046,0.0497879,20.9633,177.208,0.161225,0.0,0.0
1680,419.75,19.9778,20.6532,147.836,100.927,99.2391,0.00145651,0.0497112,20.9633,177.198,0.163717,0.0,0.0
1687,421.5,19.8201,20.8478,149.961,100.977,99.2742,0.00151049,0.0496682,20.9633,177.198,0.16511,0.0,0.0
1694,423.25,19.4651,20.4166,150.085,100.998,99.291,0.00153745,0.0497777,20.9633,177.148,0.16546,0.0,0.0
1701,425,19.7074,20.8784,147.925,101.002,99.2213,0.00150816,0.049876,20.9633,177.138,0.172629,0.0,0.0
1708,426.75,19.9063,20.8454,151.57,100.993,99.0899,0.00141254,0.0499554,20.9633,177.048,0.184668,0.0,0.0
1715,428.5,19.5421,21.1354,150.261,100.969,99.1263,0.00123915,0.0502569,20.9635,177.098,0.178751,0.0,0.0
1722,430.25,19.5365,21.0156,150.456,100.912,99.1601,0.00116547,0.0504726,20.9636,177.068,0.169998,0.0,0.0
1729,432,19.8278,20.4712,150.763,100.852,98.7943,0.00119924,0.0505795,20.9636,177.058,0.200141,0.0,0.0
1736,433.75,19.833,20.7951,151.75,100.788,98.9035,0.00125804,0.0507751,20.9632,176.988,0.183253,0.0,0.0
1743,435.5,19.5573,20.2375,148.567,100.683,98.892,0.00131663,0.0511436,20.9622,176.948,0.174209,0.0,0.0
1750,437.25,20.1998,20.6709,151.889,100.622,98.1636,0.00139799,0.0513377,20.9618,176.968,0.240153,0.0,0.0
1757,439,19.7082,20.7831,148.853,100.52,98.4254,0.0014719,0.05136,20.9626,176.908,0.204451,0.0,0.0
1764,440.75,19.727,21.0336,153.518,100.438,98.7322,0.0014706,0.0514637,20.9627,176.898,0.166251,0.0,0.0
1771,442.5,19.8963,20.9909,150.894,100.351,98.0481,0.00138501,0.051422,20.962,176.858,0.225377,0.0,0.0
1778,444.25,19.6002,20.9358,148.335,100.297,98.172,0.00127682,0.0512126,20.9616,176.848,0.207876,0.0,0.0
1785,446,19.7254,20.75,148.001,100.211,98.0153,0.00121242,0.0510535,20.9615,176.798,0.215091,0.0,0.0
1792,447.75,19.5894,20.5059,147.69,100.162,98.0273,0.0011894,0.0510586,20.9614,176.788,0.209123,0.0,0.0
1799,449.5,19.8318,20.8335,149.959,100.161,97.82,0.00114505,0.051188,20.9614,176.748,0.229554,0.0,0.0
1806,451.25,20.1922,20.5093,150.108,100.287,98.0681,0.0010554,0.0515544,20.9617,176.708,0.217205,0.0,0.0
1813,453,19.71,20.7164,145.704,100.408,98.5293,0.000998519,0.0517201,20.9622,176.648,0.183299,0.0,0.0
1820,454.75,19.4544,20.5616,150.044,100.502,98.5187,0.00101774,0.0517844,20.9624,176.638,0.19345,0.0,0.0
1827,456.5,19.8867,21.2053,149.623,100.562,98.413,0.00108051,0.0517081,20.9626,176.628,0.209652,0.0,0.0
1834,458.25,19.9157,20.8137,152.385,100.616,98.6021,0.00116996,0.0516531,20.9626,176.598,0.196253,0.0,0.0
1841,460,20.2177,20.6339,149.427,100.622,98.623,0.00135301,0.0515917,20.9626,176.578,0.194789,0.0,0.0
1848,461.75,19.9224,20.7365,150.252,100.622,98.393,0.00146645,0.0515221,20.9626,176.578,0.217447,0.0,0.0
1855,463.5,19.7386,20.9614,150.66,100.606,98.5151,0.00147997,0.05145,20.9626,176.538,0.203877,0.0,0.0
1862,465.25,19.4303,20.4323,151.574,100.537,98.0908,0.00148779,0.0513889,20.9626,176.448,0.23909,0.0,0.0
1869,467,19.9369,20.7602,150.498,100.448,97.8071,0.00153275,0.0513775,20.9626,176.438,0.258612,0.0,0.0
1876,468.75,19.9463,20.855,150.528,100.336,98.3851,0.00163324,0.0515572,20.9626,176.368,0.19062,0.0,0.0
1883,470.5,19.7518,21.0843,149.277,100.189,98.0734,0.00173699,0.0517942,20.9626,176.338,0.207161,0.0,0.0
1890,472.25,19.954,21.0745,150.855,100.012,97.2474,0.00183302,0.051938,20.9626,176.288,0.272107,0.0,0.0
1897,474,20.1525,20.7257,150.251,99.8146,97.4946,0.00189795,0.0520383,20.9626,176.198,0.228285,0.0,0.0
1904,475.75,19.9311,21.1507,148.938,99.7775,97.2128,0.0019526,0.0523028,20.962,176.248,0.252779,0.0,0.0
1911,477.5,20.3506,20.6235,151.084,99.8016,97.6282,0.00189874,0.0529655,20.9614,176.208,0.213721,0.0,0.0
1918,479.25,19.9788,20.7518,147.107,99.8619,97.013,0.0018107,0.0532604,20.9601,176.188,0.280954,0.0,0.0
1925,481,20.0907,20.8362,149.514,99.908,96.6779,0.00182003,0.0531462,20.9595,176.117,0.319023,0.0,0.0
1932,482.75,20.2004,20.8376,151.179,99.9578,97.4711,0.00187946,0.0530244,20.9592,176.087,0.244537,0.0,0.0
1939,484.5,20.0408,20.9891,148.179,100.018,98.1205,0.00186666,0.0526608,20.9591,176.097,0.185937,0.0,0.0
1946,486.25,19.9871,21.0999,152.759,100.072,98.2772,0.00184397,0.0524715,20.9598,175.997,0.175631,0.0,0.0
1953,488,19.9105,21.6466,145.679,100.107,100.008,0.00188929,0.0523241,20.9606,175.887,0.00953153,0.0,0.0
1960,489.75,20.3683,21.6728,145.047,100.151,100.341,0.00194001,0.0524451,20.9609,175.777,-0.0184147,0.0,1.0
1967,491.5,21.0067,22.6349,143.847,100.215,100.234,0.0019567,0.0533899,20.9611,175.697,-0.00185743,0.0,1.0
1974,493.25,20.4138,22.3148,137.015,100.25,100.236,0.00196399,0.0547017,20.9612,175.497,0.00136767,0.0,1.0
1981,495,21.5764,23.8069,137.39,100.296,99.9506,0.00197369,0.0577669,20.9598,175.337,0.0334642,0.0,0.0
1988,496.75,22.5235,24.8082,136.212,100.318,99.9657,0.00207576,0.073214,20.9582,175.087,0.0341296,0.0,0.0
1995,498.5,23.6159,27.1004,137.252,100.336,99.8698,0.00230834,0.111561,20.9578,174.896,0.0451804,0.0,0.0
2002,500.25,24.3452,28.2997,134.714,100.346,99.6222,0.00242405,0.153846,20.9407,174.686,0.0703099,0.0,0.0
2009,502,25.1434,29.2629,134.61,100.34,99.5112,0.00236183,0.20077,20.9022,174.496,0.0805381,0.0,0.0
2016,503.75,26.2399,30.2821,136.452,100.328,99.5924,0.00227605,0.246843,20.8461,174.266,0.0714724,0.0,0.0
2023,505.5,27.6947,32.061,130.854,100.307,99.0065,0.00226856,0.2867,20.7851,174.026,0.126699,0.0,0.0
2030,507.25,29.2529,34.2104,130.848,100.288,99.2533,0.00226953,0.318174,20.7272,173.795,0.100716,0.0,0.0
2037,509,29.6875,35.1331,132.558,100.242,99.8561,0.00227331,0.343382,20.6844,173.555,0.0374788,0.0,0.0
2044,510.75,30.8534,36.4057,129.623,100.213,99.386,0.00228817,0.366403,20.6507,173.295,0.0804004,0.0,0.0
2051,512.5,31.4417,37.7802,130.331,100.136,99.449,0.00242301,0.389644,20.6225,173.005,0.066818,0.0,0.0
2058,514.25,32.8911,39.011,123.789,100.077,99.3847,0.00261848,0.410342,20.5936,172.774,0.0674076,0.0,0.0
2065,516,34.1429,40.6017,129.763,100.012,99.4601,0.00275531,0.425304,20.5705,172.484,0.05367,0.0,0.0
2072,517.75,35.0598,41.8192,128.633,99.9259,98.8547,0.00282007,0.440473,20.5438,172.244,0.104626,0.0,0.0
2079,519.5,35.784,43.2099,129.525,99.8709,99.109,0.00281831,0.455101,20.5255,171.864,0.0743334,0.0,0.0
2086,521.25,36.8834,44.8498,129.402,99.7796,98.8809,0.00280012,0.466891,20.5099,171.653,0.0878239,0.0,0.0
2093,523,37.9611,46.0581,125.625,99.7053,98.7069,0.00275776,0.479311,20.4952,171.303,0.097698,0.0,0.0
2100,524.75,38.9655,47.4149,130.866,99.6405,98.6891,0.00270076,0.491141,20.4824,171.063,0.0931295,0.0,0.0
2107,526.5,40.3349,48.0898,125.914,99.5557,98.0885,0.0026671,0.500953,20.4661,170.763,0.144117,0.0,0.0
2114,528.25,41.1916,49.2508,128.244,99.4721,98.0877,0.00272536,0.511757,20.4507,170.452,0.136051,0.0,0.0
2121,530,41.7714,50.7635,129.667,99.3877,98.0579,0.00285538,0.521337,20.441,170.142,0.130753,0.0,0.0
2128,531.75,43.1507,51.5095,123.787,99.3167,98.0761,0.00305818,0.533618,20.4283,169.852,0.12202,0.0,0.0
2135,533.5,44.244,53.041,129.085,99.2556,97.7317,0.00315108,0.546982,20.4152,169.532,0.150192,0.0,0.0
2142,535.25,44.6851,54.3121,129.37,99.1895,96.8856,0.00317451,0.559693,20.3989,169.151,0.228126,0.0,0.0
2149,537,45.944,55.137,125.001,99.1638,97.6171,0.00327381,0.570399,20.3832,168.811,0.152596,0.0,0.0
2156,538.75,46.5106,55.5906,128.797,99.0998,97.4223,0.00343562,0.581242,20.367,168.571,0.165724,0.0,0.0
2163,540.5,47.3188,57.0546,129.544,99.0558,96.8164,0.00354142,0.591526,20.3524,168.24,0.221969,0.0,0.0
2170,542.25,48.4585,57.998,127.192,99.0256,97.2532,0.0035381,0.600487,20.3416,167.88,0.175317,0.0,0.0
2177,544,49.3272,59.0116,127.872,99.0182,97.369,0.00350131,0.606593,20.3323,167.53,0.16304,0.0,0.0
2184,545.75,49.3315,59.905,124.698,99.0378,96.7755,0.00348215,0.610879,20.3235,167.209,0.224305,0.0,0.0
2191,547.5,50.5127,60.8775,127.329,99.0594,96.8315,0.00348167,0.61683,20.3171,166.879,0.220815,0.0,0.0
2198,549.25,51.5374,61.5849,128.493,99.0778,96.811,0.00349713,0.625009,20.311,166.519,0.22466,0.0,0.0
2205,551,52.3993,62.315,125.662,99.1235,96.7742,0.00356618,0.63335,20.3037,166.109,0.232828,0.0,0.0
2212,552.75,52.7195,63.2826,123.513,99.2168,96.8639,0.00363174,0.643648,20.2947,165.808,0.23298,0.0,0.0
2219,554.5,53.697,64.1995,121.599,99.2731,96.5531,0.0036345,0.651083,20.2834,165.468,0.269671,0.0,0.0
2226,556.25,54.5289,64.6443,125.842,99.375,97.0103,0.00367127,0.658652,20.2712,165.128,0.233778,0.0,0.0
2233,558,55.0773,65.7045,125.571,99.4558,96.5318,0.00377744,0.664985,20.2641,164.727,0.28966,0.0,0.0
2240,559.75,55.7134,66.494,125.372,99.5663,96.6042,0.00390358,0.672976,20.2566,164.317,0.293166,0.0,0.0
2247,561.5,56.4138,67.6243,123.734,99.6658,97.0534,0.00393895,0.679549,20.2465,164.007,0.257829,0.0,0.0
2254,563.25,57.3698,67.6002,129.615,99.7657,97.0392,0.00392432,0.685319,20.2377,163.706,0.268975,0.0,0.0
2261,565,57.5888,68.6476,121.515,99.8701,96.8701,0.00396516,0.690363,20.23,163.346,0.296059,0.0,0.0
2268,566.75,58.2295,69.1576,126.009,99.9794,96.0755,0.00410546,0.694548,20.2239,162.906,0.386622,0.0,0.0
2275,568.5,58.5717,69.3086,126.023,100.089,96.5199,0.00429719,0.699105,20.2183,162.615,0.352478,0.0,0.0
2282,570.25,58.9496,70.163,125.717,100.204,95.8341,0.0045023,0.702989,20.2101,162.265,0.43288,0.0,0.0
2289,572,59.5918,70.9992,121.346,100.288,97.0015,0.00466201,0.706087,20.2039,161.865,0.323442,0.0,0.0
2296,573.75,60.0165,71.4721,122.421,100.378,95.8722,0.00477429,0.707684,20.1999,161.494,0.445828,0.0,0.0
2303,575.5,60.5078,72.0931,126.527,100.472,95.6916,0.00483655,0.707842,20.1974,161.174,0.473163,0.0,0.0
2310,577.25,60.6119,72.2028,118.52,100.554,96.4897,0.00490487,0.709622,20.1956,160.794,0.400454,0.0,0.0
2317,579,61.6178,73.0257,120.023,100.619,95.9788,0.00498399,0.71417,20.1947,160.433,0.458324,0.0,0.0
2324,580.75,62.0639,73.3177,129.733,100.685,96.0018,0.00513603,0.717578,20.1932,160.053,0.462361,0.0,0.0
2331,582.5,62.7329,73.9051,123.626,100.746,96.1878,0.0053818,0.719333,20.1873,159.683,0.44939,0.0,0.0
2338,584.25,62.6925,74.1465,121.877,100.837,94.7878,0.00561937,0.721036,20.1826,159.362,0.600511,0.0,0.0
2345,586,62.7222,74.9448,124.389,100.874,94.0532,0.00571529,0.723305,20.1801,158.992,0.679568,0.0,0.0
2352,587.75,63.2146,74.9176,118.922,100.905,94.9361,0.00571856,0.72552,20.1773,158.622,0.591933,0.0,0.0
2359,589.5,63.3348,75.2515,121.943,100.945,94.4771,0.00577036,0.726995,20.1742,158.271,0.642741,0.0,0.0
2366,591.25,64.2934,75.6484,123.647,100.956,94.3502,0.00579776,0.727058,20.1723,157.911,0.65689,0.0,0.0
2373,593,64.5078,75.8211,119.766,100.974,94.5193,0.0058051,0.725185,20.171,157.561,0.641192,0.0,0.0
2380,594.75,64.6431,75.6423,124.914,101.006,91.9425,0.00596684,0.724254,20.1705,157.161,0.912592,0.0,0.0
2387,596.5,64.4059,76.0819,124.469,100.998,92.6416,0.00623725,0.72499,20.1712,156.81,0.838277,0.0,0.0
2394,598.25,65.2004,76.1876,123.506,101,90.9895,0.0064818,0.724883,20.1709,156.41,1.01322,0.0,0.0
2401,600,65.2968,76.1651,126.414,101.018,92.4379,0.00658831,0.725446,20.1702,156.039,0.861607,0.0,0.0
2408,601.75,65.5069,76.885,126.669,101.005,93.7518,0.00667022,0.726835,20.1683,155.619,0.723352,0.0,0.0
2415,603.5,65.8498,76.4893,129.365,101,92.7136,0.00684013,0.730576,20.1662,155.309,0.830979,0.0,0.0
2422,605.25,65.8172,76.8294,119.859,101,92.3891,0.00712775,0.735665,20.1626,154.928,0.864972,0.0,0.0
2429,607,65.9747,76.5068,127.794,100.988,92.4885,0.00767316,0.741033,20.1579,154.538,0.853435,0.0,0.0
2436,608.75,65.6359,76.037,129.42,100.99,92.2195,0.00847729,0.74566,20.151,154.208,0.881903,0.0,0.0
2443,610.5,65.5312,75.9796,123.806,100.996,92.2328,0.0092251,0.748596,20.1418,153.928,0.88105,0.0,0.0
2450,612.25,65.308,75.0248,130.675,100.992,94.8695,0.00973077,0.749829,20.1357,153.627,0.607056,0.0,0.0
2457,614,64.7338,74.4581,134.385,100.998,95.9592,0.00997201,0.746279,20.1309,153.327,0.496739,0.0,0.0
2464,615.75,64.1443,73.7773,133.115,100.991,97.1688,0.00973937,0.737087,20.1273,153.117,0.374478,0.0,0.0
2471,617.5,63.833,72.4797,133.664,100.996,97.646,0.00938717,0.716204,20.1286,152.957,0.327474,0.0,0.0
2478,619.25,62.4635,71.4766,134.02,100.972,98.1565,0.00900721,0.688189,20.1446,152.787,0.27451,0.0,0.0
2485,621,62.1725,69.9051,135.009,100.971,98.7579,0.00858434,0.650031,20.1684,152.606,0.215092,0.0,0.0
2492,622.75,61.0106,68.2545,140.849,100.974,99.8414,0.00782887,0.60594,20.2057,152.476,0.109447,0.0,0.0
2499,624.5,59.5232,66.8865,139.692,100.971,101.192,0.0069518,0.559034,20.2566,152.356,-0.0212323,0.0,0.0
2506,626.25,58.5482,65.3324,144.698,100.963,101.228,0.00604847,0.509738,20.3199,152.246,-0.0254644,0.0,0.0
2513,628,57.4071,63.0476,140.014,100.958,101.307,0.00539816,0.47183,20.3688,152.116,-0.0335056,0.0,0.0
2520,629.75,55.8222,61.5855,141.694,100.958,101.265,0.00475757,0.423144,20.4239,152.076,-0.0294679,0.0,0.0
2527,631.5,54.8715,59.7902,140.844,100.954,101.43,0.00427878,0.374206,20.4804,152.086,-0.045637,0.0,0.0
2534,633.25,53.1535,57.4711,143.549,100.945,101.248,0.00392242,0.329918,20.5448,152.026,-0.0290669,0.0,0.0
2541,635,52.1073,56.6717,143.238,100.949,101.391,0.00365743,0.291242,20.6012,151.956,-0.0424066,0.0,0.0
2548,636.75,50.6172,55.099,144.245,100.949,101.429,0.00354489,0.257381,20.6455,151.936,-0.0460579,0.0,0.0
2555,638.5,49.1434,53.2807,145.354,100.955,101.287,0.00365474,0.22496,20.6841,151.926,-0.0318691,0.0,0.0
2562,640.25,48.5432,52.2973,146.685,100.96,101.279,0.00407201,0.202334,20.7206,151.896,-0.0305904,0.0,0.0
2569,642,47.4385,50.6633,145.092,100.969,101.311,0.00482117,0.181082,20.7589,151.866,-0.0327515,0.0,0.0
2576,643.75,46.5916,49.4819,144.969,100.968,101.217,0.00590297,0.163469,20.7886,151.796,-0.0238484,0.0,0.0
2583,645.5,44.2268,47.2813,149.381,100.981,101.303,0.00710167,0.14828,20.8109,151.836,-0.0308887,0.0,0.0
2590,647.25,42.9115,45.3548,147.682,100.983,101.269,0.00832354,0.135495,20.8295,151.796,-0.0275014,0.0,0.0
2597,649,41.6412,44.005,150.035,100.984,101.236,0.00955727,0.125142,20.8445,151.786,-0.02415,0.0,0.0
2604,650.75,41.3566,43.0849,144.673,100.979,101.295,0.0111477,0.116273,20.8556,151.716,-0.0303193,0.0,0.0
2611,652.5,40.2988,42.0362,147.507,100.987,101.217,0.0126912,0.107957,20.8648,151.756,-0.0221271,0.0,0.0
2618,654.25,39.4717,40.906,147.033,101.005,101.208,0.0139304,0.0999859,20.8742,151.736,-0.0195121,0.0,0.0
2625,656,38.4503,40.3699,146.976,100.988,101.316,0.0147736,0.0928253,20.8816,151.716,-0.0314982,0.0,0.0
2632,657.75,38.2263,39.3377,146.405,100.987,101.336,0.0155679,0.0869872,20.8896,151.696,-0.0334476,0.0,0.0
2639,659.5,37.472,38.4854,145.737,100.978,101.264,0.0160893,0.0824611,20.8962,151.656,-0.0274225,0.0,0.0
2646,661.25,36.6149,37.8029,149.281,100.999,101.288,0.016307,0.0794564,20.9018,151.485,-0.0277207,0.0,0.0
2653,663,35.8397,37.4764,147.919,100.989,101.234,0.016289,0.0774893,20.9061,151.616,-0.0235491,0.0,0.0
2660,664.75,35.5231,35.9417,148.06,100.996,101.348,0.0161641,0.0762392,20.9087,151.576,-0.0337756,0.0,0.0
2667,666.5,34.3435,35.7336,145.108,100.976,101.239,0.016056,0.0755019,20.91,151.565,-0.0252324,0.0,0.0
2674,668.25,34.1527,35.3344,145.214,100.992,101.223,0.0159175,0.0748389,20.9106,151.565,-0.0221317,0.0,0.0
2681,670,33.8634,34.4989,147.352,100.991,101.331,0.0156836,0.0738549,20.9109,151.596,-0.0326296,0.0,0.0
2688,671.75,33.4125,33.8754,144.569,100.99,101.237,0.0154262,0.0734156,20.9121,151.586,-0.0237295,0.0,0.0
2695,673.5,33.0998,33.9566,148.223,100.977,101.293,0.0153599,0.0734797,20.9129,151.525,-0.0303449,0.0,0.0
2702,675.25,32.8817,33.1283,146.001,100.983,101.282,0.0154798,0.0736112,20.9136,151.525,-0.028735,0.0,0.0
2709,677,31.9489,32.566,145.094,100.986,101.246,0.0156501,0.0738107,20.914,151.545,-0.024976,0.0,0.0
2716,678.75,31.9451,32.0956,147.309,100.99,101.239,0.0157224,0.074028,20.9136,151.515,-0.0239,0.0,0.0
2723,680.5,31.6976,32.2215,144.337,100.989,101.32,0.0157273,0.0740875,20.9128,151.525,-0.0318024,0.0,0.0
2730,682.25,30.6618,31.6274,143.752,100.969,101.241,0.0157377,0.0739655,20.9124,151.435,-0.0260689,0.0,0.0
2737,684,30.9456,31.4548,147.981,100.98,101.281,0.0157674,0.0737339,20.9122,151.475,-0.0288824,0.0,0.0
2744,685.75,30.5971,30.5534,144.931,100.98,101.244,0.0158285,0.0733386,20.9116,151.475,-0.0253902,0.0,0.0
2751,687.5,30.0834,30.0578,146.188,100.959,101.252,0.0158697,0.0730216,20.912,151.485,-0.0281129,0.0,0.0
2758,689.25,30.1882,30.1369,145.337,100.963,101.216,0.0159443,0.0729834,20.9132,151.455,-0.024277,0.0,0.0
2765,691,29.7559,30.0123,141.977,100.956,101.213,0.0160979,0.0731361,20.914,151.465,-0.0246018,0.0,0.0
2772,692.75,29.5216,29.5473,148.638,100.952,101.215,0.0163124,0.0731184,20.9143,151.445,-0.0252463,0.0,0.0
2779,694.5,29.1223,29.394,145.548,100.951,101.172,0.0164789,0.072849,20.9145,151.445,-0.021277,0.0,0.0
2786,696.25,28.2343,28.9622,149.148,100.928,101.273,0.0165703,0.07271,20.9152,151.355,-0.0330929,0.0,0.0
2793,698,28.4058,28.3983,148.137,100.916,101.119,0.0166539,0.0727295,20.9161,151.385,-0.0195799,0.0,0.0
2800,699.75,28.0758,27.9761,147.325,100.899,101.18,0.0167443,0.0728644,20.9159,151.415,-0.026985,0.0,0.0
2807,701.5,28.3395,28.0192,146.25,100.891,101.131,0.0167217,0.0726988,20.9153,151.365,-0.023084,0.0,0.0
2814,703.25,27.4069,28.2729,147.303,100.864,101.067,0.0166754,0.0727015,20.9149,151.325,-0.0194941,0.0,0.0
2821,705,27.7122,27.9163,147.218,100.837,101.188,0.0167056,0.0727183,20.9148,151.265,-0.0336734,0.0,0.0
2828,706.75,27.1506,27.84,150.716,100.8,101.083,0.0167936,0.0728573,20.9147,151.305,-0.0271881,0.0,0.0
2835,708.5,27.4063,27.2733,146.15,100.771,100.983,0.0168865,0.0736696,20.9158,151.325,-0.0203417,0.0,0.0
2842,710.25,27.538,27.225,147.29,100.727,100.934,0.017093,0.0749769,20.9169,151.295,-0.0199301,0.0,0.0
2849,712,26.8894,27.0436,144.071,100.69,101.063,0.0173893,0.0762381,20.9164,151.285,-0.0358782,0.0,0.0
2856,713.75,26.2628,26.3022,153.246,100.645,100.891,0.0176941,0.0770979,20.9148,151.235,-0.0236929,0.0,0.0
2863,715.5,26.8592,26.8365,146.678,100.61,100.857,0.0178206,0.0772009,20.914,151.265,-0.0237446,0.0,0.0
2870,717.25,26.2663,26.4207,146.781,100.545,100.738,0.0178773,0.0769979,20.9123,151.255,-0.0185851,0.0,0.0
2877,719,26.5876,26.462,148.1,100.493,100.774,0.0179003,0.0766294,20.9126,151.245,-0.02705,0.0,0.0
2884,720.75,25.9538,26.2247,146.765,100.408,100.63,0.0179216,0.0764588,20.9129,151.185,-0.0213831,0.0,0.0
2891,722.5,25.8666,26.0619,145.901,100.35,100.604,0.0179143,0.0763835,20.913,151.185,-0.0245415,0.0,0.0
2898,724.25,26.2109,26.3835,144.508,100.285,100.573,0.0178384,0.0764007,20.9131,151.185,-0.0277706,0.0,0.0
2905,726,26.162,25.6775,148.144,100.213,100.513,0.0177684,0.0764912,20.9131,151.185,-0.029013,0.0,0.0
2912,727.75,25.8752,25.8101,143.709,100.127,100.346,0.0177783,0.076529,20.9133,151.155,-0.0212625,0.0,0.0
2919,729.5,25.514,25.9289,149.021,100.015,100.32,0.0179133,0.0766208,20.9137,151.155,-0.0295666,0.0,0.0
2926,731.25,25.483,26.0417,156.568,99.9325,100.191,0.0180608,0.0767515,20.9134,151.095,-0.0250578,0.0,0.0
2933,733,24.9189,25.2901,149.131,99.8293,100.045,0.018205,0.0765621,20.9124,151.075,-0.020925,0.0,0.0
2940,734.75,25.4428,25.0761,150.547,99.7286,99.9631,0.0183067,0.0763158,20.9119,151.085,-0.0227957,0.0,0.0
2947,736.5,25.1,25.509,147.078,99.6364,99.8383,0.0184106,0.076169,20.9117,151.025,-0.0196506,0.0,0.0
2954,738.25,24.5568,24.8553,148.184,99.5467,99.6736,0.0185607,0.0761203,20.9112,151.085,-0.0123693,0.0,0.0
2961,740,24.5291,24.7095,146.55,99.4684,99.714,0.0186331,0.0759893,20.9109,151.055,-0.02394,0.0,0.0
2968,741.75,24.9633,24.9815,142.046,99.3718,99.6182,0.0186291,0.0758167,20.912,151.035,-0.024038,0.0,0.0
2975,743.5,24.0886,25.2375,146.352,99.3004,99.4983,0.0187196,0.07591,20.9125,150.975,-0.0193254,0.0,0.0
2982,745.25,24.3525,24.1433,146.794,99.2274,99.4846,0.0188388,0.0760569,20.9121,150.975,-0.025121,0.0,0.0
2989,747,24.4181,25.1289,145.375,99.1752,99.3976,0.0188973,0.0762461,20.9113,150.965,-0.0217351,0.0,0.0
2996,748.75,24.4923,24.5969,148.597,99.123,99.2639,0.0189827,0.0765428,20.9109,150.965,-0.0137893,0.0,0.0
3003,750.5,24.6934,24.3614,147.44,99.0761,99.283,0.0190785,0.0768947,20.9108,150.945,-0.0202478,0.0,0.0
3010,752.25,24.1717,24.2081,149.225,99.0325,99.1889,0.0190854,0.0771826,20.9107,150.895,-0.0153191,0.0,0.0
3017,754,23.991,23.9864,146.447,99.0386,99.2133,0.0190487,0.077264,20.9103,150.935,-0.0171081,0.0,0.0
3024,755.75,24.3617,23.8734,145.345,99.0256,99.2253,0.0190295,0.077233,20.9097,150.905,-0.0195602,0.0,0.0
3031,757.5,23.6038,24.4242,146.909,99.0301,99.2196,0.0190116,0.0772928,20.9094,150.885,-0.0185561,0.0,0.0
3038,759.25,23.8181,24.035,145.337,99.0354,99.2324,0.0189797,0.0771496,20.9092,150.835,-0.0192958,0.0,0.0
3045,761,23.8715,23.9716,147.341,99.0627,99.2324,0.0189606,0.0769294,20.9092,150.855,-0.0166184,0.0,0.0
3052,762.75,23.4819,24.0264,145.782,99.0953,99.2107,0.0190326,0.0768145,20.9098,150.845,-0.0112941,0.0,0.0
3059,764.5,24.2525,24.1585,149.295,99.1357,99.3097,0.0191134,0.0767263,20.9107,150.835,-0.0170206,0.0,0.0
3062,765.25,23.3318,23.1967,147.204,99.1626,99.3066,0.0191259,0.0766255,20.9109,150.825,-0.0140819,0.0,0.0