File: 01_Data/Plastic_Laminate_Countertop/Cone/Plastic_Laminate_Countertop_HRRPUA_50.csv
Time after Ignition,Plastic_Laminate_Countertop_R2,Plastic_Laminate_Countertop_R3,Plastic_Laminate_Countertop_R1,Mean,Std. Dev.
0.0,33.6,19.0,89.7,47.4,37.4
2.5,60.7,48.7,166.0,91.8,64.5
5.0,55.1,51.9,198.8,101.9,83.9
7.5,35.6,41.6,180.6,86.0,82.1
10.0,22.6,46.9,156.1,75.2,71.1
12.5,22.9,106.4,141.8,90.4,61.1
15.0,78.3,174.0,135.0,129.1,48.2
17.5,146.7,194.9,130.0,157.2,33.7
20.0,176.5,188.0,130.3,164.9,30.5
22.5,162.2,158.1,132.0,150.8,16.4
25.0,146.1,122.9,132.7,133.9,11.7
27.5,136.0,100.7,131.3,122.6,19.1
30.0,134.1,91.9,120.9,115.6,21.6
32.5,135.0,91.1,110.6,112.2,22.0
35.0,134.6,98.1,97.7,110.1,21.2
37.5,130.7,110.3,82.0,107.7,24.4
40.0,117.1,120.3,73.3,103.6,26.2
42.5,104.1,127.6,66.1,99.3,31.0
45.0,92.8,124.9,61.5,93.1,31.7
47.5,81.0,122.3,56.0,86.4,33.5
50.0,74.5,112.1,51.5,79.3,30.6
52.5,68.8,100.1,49.3,72.8,25.6
55.0,64.2,91.5,47.8,67.8,22.1
57.5,60.3,82.0,46.1,62.8,18.1
60.0,55.8,76.1,44.5,58.8,16.0
62.5,51.5,71.3,44.9,55.9,13.8
65.0,47.3,66.3,43.7,52.4,12.1
67.5,44.8,62.8,45.5,51.0,10.2
70.0,43.5,60.6,46.5,50.2,9.1
72.5,40.9,57.5,48.0,48.8,8.3
75.0,38.6,54.5,50.5,47.9,8.3
77.5,37.9,54.0,50.7,47.5,8.5
80.0,37.6,53.5,52.8,48.0,9.0
82.5,37.8,53.9,56.2,49.3,10.0
85.0,37.5,53.1,60.6,50.4,11.8
87.5,38.0,53.0,62.8,51.3,12.5
90.0,37.7,53.9,65.1,52.2,13.8
92.5,38.2,54.1,67.2,53.2,14.5
95.0,39.0,55.3,72.3,55.5,16.7
97.5,39.0,56.8,74.7,56.8,17.9
100.0,40.5,60.0,77.6,59.3,18.6
102.5,41.0,61.0,80.6,60.9,19.8
105.0,43.8,63.9,86.2,64.7,21.2
107.5,49.4,66.4,90.9,68.9,20.9
110.0,51.8,67.9,95.6,71.8,22.2
112.5,56.9,68.3,99.1,74.8,21.8
115.0,60.8,69.9,102.9,77.9,22.1
117.5,66.1,72.2,107.0,81.8,22.1
120.0,70.8,75.4,112.1,86.1,22.7
122.5,74.0,77.8,116.1,89.3,23.3
125.0,76.4,80.2,118.9,91.8,23.5
127.5,81.1,83.3,126.7,97.1,25.7
130.0,85.0,85.4,126.5,99.0,23.9
132.5,89.7,85.9,131.2,102.3,25.2
135.0,92.8,88.5,132.2,104.5,24.1
137.5,95.7,90.5,134.3,106.9,23.9
140.0,99.0,94.1,137.4,110.1,23.7
142.5,102.4,92.6,139.7,111.6,24.9
145.0,105.3,96.0,140.8,114.0,23.6
147.5,106.7,97.8,141.1,115.2,22.9
150.0,108.6,99.8,143.7,117.3,23.2
152.5,110.0,99.0,142.1,117.0,22.4
155.0,113.4,101.7,145.0,120.0,22.4
157.5,117.1,103.3,146.5,122.3,22.1
160.0,115.7,104.1,144.0,121.3,20.5
162.5,118.4,106.6,145.2,123.4,19.8
165.0,118.2,106.8,145.8,123.6,20.1
167.5,119.7,109.2,142.6,123.8,17.1
170.0,119.7,113.2,145.1,126.0,16.9
172.5,117.4,114.6,143.9,125.3,16.2
175.0,119.9,114.9,141.8,125.6,14.3
177.5,119.9,115.6,143.0,126.2,14.7
180.0,122.5,116.8,145.8,128.4,15.4
182.5,122.7,118.0,141.0,127.2,12.2
185.0,124.5,118.4,142.4,128.4,12.5
187.5,125.3,120.4,139.2,128.3,9.8
190.0,125.0,119.8,141.6,128.8,11.4
192.5,124.8,120.6,139.9,128.4,10.2
195.0,124.8,120.5,140.3,128.5,10.4
197.5,125.8,120.9,137.5,128.0,8.5
200.0,123.8,122.3,137.3,127.8,8.2
202.5,124.5,122.5,137.4,128.1,8.1
205.0,124.5,124.4,136.0,128.3,6.7
207.5,126.0,124.4,135.2,128.5,5.8
210.0,124.2,124.7,131.8,126.9,4.3
212.5,124.4,126.5,133.2,128.0,4.6
215.0,125.9,124.7,130.3,127.0,2.9
217.5,124.5,126.4,130.3,127.0,3.0
220.0,122.9,124.0,130.6,125.8,4.2
222.5,125.8,126.6,130.9,127.7,2.8
225.0,124.0,124.0,131.0,126.3,4.1
227.5,122.0,124.5,130.4,125.6,4.3
230.0,121.0,123.8,126.0,123.6,2.5
232.5,118.7,121.4,125.4,121.9,3.3
235.0,118.4,121.1,125.2,121.6,3.4
237.5,118.8,124.6,124.8,122.7,3.4
240.0,116.4,122.7,124.5,121.2,4.2
242.5,115.9,124.8,122.8,121.2,4.7
245.0,116.2,125.4,123.0,121.5,4.8
247.5,116.6,125.0,122.0,121.2,4.3
250.0,119.2,121.9,120.6,120.6,1.3
252.5,116.9,125.2,119.6,120.6,4.2
255.0,116.6,125.5,121.7,121.3,4.5
257.5,115.2,121.2,119.1,118.5,3.0
260.0,114.2,122.8,120.9,119.3,4.5
262.5,114.6,123.0,118.6,118.7,4.2
265.0,114.6,124.4,117.6,118.9,5.0
267.5,115.1,122.5,116.8,118.1,3.8
270.0,113.2,123.4,116.3,117.7,5.2
272.5,113.9,122.4,118.4,118.3,4.3
275.0,114.5,120.4,116.4,117.1,3.0
277.5,112.5,120.2,114.5,115.7,4.0
280.0,113.0,121.3,113.1,115.8,4.8
282.5,112.2,118.5,115.2,115.3,3.2
285.0,112.6,118.3,114.1,115.0,3.0
287.5,112.2,120.2,113.3,115.2,4.3
290.0,110.4,119.2,114.6,114.7,4.4
292.5,110.6,121.2,113.8,115.2,5.4
295.0,111.5,119.3,112.9,114.5,4.2
297.5,109.9,118.5,113.2,113.8,4.3
300.0,109.0,117.5,110.2,112.2,4.6
302.5,109.6,119.1,109.9,112.9,5.4
305.0,106.9,120.0,110.8,112.6,6.7
307.5,106.5,116.8,109.8,111.0,5.3
310.0,105.7,116.4,109.8,110.6,5.4
312.5,104.9,116.0,109.9,110.3,5.6
315.0,105.1,116.4,109.5,110.3,5.7
317.5,104.5,115.3,110.3,110.0,5.4
320.0,103.8,116.5,108.9,109.7,6.4
322.5,104.3,114.9,108.3,109.2,5.3
325.0,103.0,116.9,107.7,109.2,7.1
327.5,102.5,114.3,108.6,108.5,5.9
330.0,104.4,114.9,108.5,109.3,5.3
332.5,102.5,114.5,107.0,108.0,6.1
335.0,100.4,115.0,105.4,107.0,7.4
337.5,99.3,114.5,105.8,106.5,7.6
340.0,101.6,114.9,105.8,107.5,6.8
342.5,100.5,113.0,105.0,106.2,6.3
345.0,97.2,112.0,104.9,104.7,7.4
347.5,97.6,112.1,105.3,105.0,7.2
350.0,98.3,112.2,104.8,105.1,7.0
352.5,97.9,112.5,103.8,104.7,7.3
355.0,98.3,111.4,105.2,104.9,6.5
357.5,98.2,110.8,103.2,104.1,6.3
360.0,98.8,111.0,103.5,104.5,6.1
362.5,97.6,109.9,104.2,103.9,6.1
365.0,96.2,109.1,104.8,103.4,6.6
367.5,98.2,107.2,105.6,103.7,4.8
370.0,97.1,108.7,103.8,103.2,5.8
372.5,98.2,108.1,104.1,103.5,5.0
375.0,96.4,108.6,103.3,102.8,6.1
377.5,96.1,107.0,103.3,102.1,5.5
380.0,97.1,104.7,104.5,102.1,4.3
382.5,96.9,106.4,102.7,102.0,4.8
385.0,96.3,105.8,102.6,101.6,4.8
387.5,97.4,108.3,101.7,102.5,5.5
390.0,96.3,105.3,103.2,101.6,4.7
392.5,95.2,104.6,103.7,101.2,5.2
395.0,96.4,106.8,100.8,101.3,5.2
397.5,95.9,106.1,103.0,101.7,5.2
400.0,94.0,105.3,101.5,100.2,5.8
402.5,95.5,107.6,101.7,101.6,6.1
405.0,93.2,107.0,102.5,100.9,7.0
407.5,93.7,105.4,100.2,99.8,5.9
410.0,93.7,104.7,100.6,99.7,5.6
412.5,94.0,104.8,100.9,99.9,5.5
415.0,94.8,104.1,101.2,100.0,4.7
417.5,91.4,102.9,100.9,98.4,6.2
420.0,93.9,103.7,101.7,99.8,5.2
422.5,92.8,104.3,100.5,99.2,5.8
425.0,91.7,103.4,99.7,98.3,6.0
427.5,91.1,102.9,100.3,98.1,6.2
430.0,92.7,105.9,100.0,99.5,6.6
432.5,91.3,102.1,98.3,97.2,5.5
435.0,91.9,102.1,98.3,97.5,5.1
437.5,90.8,103.4,99.9,98.0,6.5
440.0,90.9,102.2,99.2,97.4,5.9
442.5,90.2,103.7,99.8,97.9,7.0
445.0,89.5,101.5,98.7,96.6,6.2
447.5,91.4,103.9,97.3,97.5,6.3
450.0,89.4,102.8,97.3,96.5,6.7
452.5,91.4,102.6,96.8,96.9,5.6
455.0,90.3,104.1,96.6,97.0,6.9
457.5,91.3,103.9,95.9,97.0,6.4
460.0,90.2,101.8,95.9,96.0,5.8
462.5,89.6,100.8,94.7,95.1,5.6
465.0,88.7,101.8,94.0,94.9,6.6
467.5,89.7,103.0,95.1,95.9,6.7
470.0,90.2,101.8,93.1,95.0,6.0
472.5,89.5,101.9,93.3,94.9,6.3
475.0,90.7,102.9,93.4,95.7,6.4
477.5,91.4,104.1,94.3,96.6,6.6
480.0,89.2,100.1,94.4,94.6,5.4
482.5,88.4,101.4,94.2,94.7,6.5
485.0,87.4,100.4,92.9,93.6,6.5
487.5,86.7,101.6,93.6,94.0,7.5
490.0,85.8,103.4,92.3,93.8,8.9
492.5,87.1,99.2,93.6,93.3,6.1
495.0,86.2,100.0,92.0,92.7,6.9
497.5,83.8,99.6,90.6,91.3,8.0
500.0,82.8,99.1,89.7,90.6,8.2
502.5,82.8,100.9,90.6,91.4,9.0
505.0,83.2,98.3,88.1,89.9,7.7
507.5,81.8,99.0,87.6,89.5,8.8
510.0,82.0,99.1,85.8,89.0,9.0
512.5,82.0,102.1,88.0,90.7,10.3
515.0,82.2,98.5,87.6,89.4,8.3
517.5,80.1,97.8,87.1,88.4,8.9
520.0,80.2,97.5,87.5,88.4,8.7
522.5,80.0,98.9,88.6,89.2,9.4
525.0,80.1,98.4,85.7,88.0,9.4
527.5,80.2,98.1,84.8,87.7,9.3
530.0,79.1,98.7,85.4,87.7,10.0
532.5,77.4,96.1,83.9,85.8,9.5
535.0,78.8,95.2,83.4,85.8,8.5
537.5,77.2,95.2,83.3,85.2,9.1
540.0,77.3,95.5,82.3,85.0,9.4
542.5,77.3,94.4,82.2,84.6,8.8
545.0,78.2,94.3,82.4,85.0,8.4
547.5,76.5,92.4,81.2,83.4,8.2
550.0,76.7,93.2,81.7,83.9,8.5
552.5,76.4,93.1,82.6,84.0,8.4
555.0,77.6,91.8,83.0,84.1,7.2
557.5,76.0,94.0,83.0,84.3,9.1
560.0,75.6,92.7,82.9,83.7,8.6
562.5,76.2,93.2,82.1,83.8,8.7
565.0,75.4,92.0,81.2,82.9,8.4
567.5,75.3,90.2,80.7,82.1,7.6
570.0,75.7,92.9,81.7,83.4,8.7
572.5,74.8,93.8,80.6,83.1,9.7
575.0,74.9,92.4,79.5,82.3,9.1
577.5,74.2,91.7,80.3,82.1,8.9
580.0,75.4,91.4,79.4,82.1,8.3
582.5,75.0,90.2,79.5,81.6,7.8
585.0,72.9,88.4,79.6,80.3,7.8
587.5,73.7,88.7,82.0,81.5,7.5
590.0,71.8,86.9,81.5,80.1,7.6
592.5,71.8,87.9,80.0,79.9,8.1
595.0,71.2,87.7,78.8,79.2,8.3
597.5,72.3,87.9,79.3,79.8,7.8
600.0,71.2,87.0,77.2,78.5,8.0
602.5,72.0,86.6,79.0,79.2,7.3
605.0,70.6,87.1,77.0,78.2,8.3
607.5,69.6,85.4,77.7,77.6,7.9
610.0,69.6,84.5,76.9,77.0,7.5
612.5,69.5,85.6,76.5,77.2,8.1
615.0,70.1,85.8,75.6,77.1,8.0
617.5,68.1,83.4,76.2,75.9,7.7
620.0,68.7,85.2,75.6,76.5,8.3
622.5,69.1,84.8,76.0,76.6,7.9
625.0,68.2,83.4,75.0,75.5,7.6
627.5,68.3,82.9,74.3,75.2,7.3
630.0,68.8,83.3,73.2,75.1,7.4
632.5,67.2,82.2,72.5,74.0,7.6
635.0,67.6,82.3,72.7,74.2,7.4
637.5,68.2,82.4,72.5,74.4,7.2
640.0,68.5,82.5,72.1,74.4,7.3
642.5,68.6,82.4,73.4,74.8,7.0
645.0,67.5,81.3,74.0,74.3,6.9
647.5,68.0,81.8,72.9,74.3,7.0
650.0,68.4,80.6,73.1,74.0,6.2
652.5,68.8,80.3,71.2,73.4,6.1
655.0,67.8,79.5,71.1,72.8,6.0
657.5,66.6,80.5,70.9,72.7,7.1
660.0,65.3,81.4,70.4,72.4,8.3
662.5,63.9,80.9,70.5,71.8,8.6
665.0,64.0,79.6,69.5,71.1,7.9
667.5,63.8,79.6,68.7,70.7,8.1
670.0,62.8,79.5,68.2,70.2,8.6
672.5,63.1,81.2,67.7,70.7,9.4
675.0,63.1,79.9,69.6,70.9,8.5
677.5,62.6,78.4,69.3,70.1,7.9
680.0,63.3,78.0,68.5,69.9,7.5
682.5,63.3,78.4,68.2,70.0,7.7
685.0,62.6,77.6,68.3,69.5,7.6
687.5,63.7,77.0,69.2,70.0,6.7
690.0,63.7,77.4,68.9,70.0,6.9
692.5,63.1,78.6,68.4,70.0,7.9
695.0,62.9,78.6,68.7,70.1,8.0
697.5,63.2,77.7,68.0,69.6,7.3
700.0,62.9,76.6,66.3,68.6,7.1
702.5,62.2,76.9,67.6,68.9,7.4
705.0,61.7,75.6,66.5,67.9,7.1
707.5,60.8,75.9,68.4,68.4,7.6
710.0,60.7,75.5,67.9,68.0,7.4
712.5,60.3,75.5,66.9,67.6,7.6
715.0,60.8,74.9,65.4,67.1,7.2
717.5,59.6,75.4,66.8,67.3,7.9
720.0,60.8,74.8,65.7,67.1,7.1
722.5,60.9,75.0,66.3,67.4,7.1
725.0,61.0,73.2,65.7,66.7,6.1
727.5,60.6,73.6,65.4,66.5,6.5
730.0,59.3,73.5,66.3,66.4,7.1
732.5,59.5,74.8,66.0,66.8,7.7
735.0,58.2,76.0,66.5,66.9,8.9
737.5,59.5,74.0,65.6,66.4,7.3
740.0,59.9,72.1,65.6,65.8,6.1
742.5,60.4,71.5,65.6,65.8,5.6
745.0,60.0,72.0,64.3,65.4,6.1
747.5,58.9,70.1,64.8,64.6,5.6
750.0,58.3,71.1,65.4,65.0,6.4
752.5,58.3,70.8,65.3,64.8,6.2
755.0,56.5,71.8,65.2,64.5,7.7
757.5,57.9,71.2,65.3,64.8,6.7
760.0,57.6,70.7,65.6,64.6,6.6
762.5,60.2,70.9,63.6,64.9,5.4
765.0,60.1,69.6,64.8,64.8,4.7
767.5,58.5,69.2,65.0,64.2,5.4
770.0,59.7,69.8,65.5,65.0,5.1
772.5,57.7,68.9,64.5,63.7,5.6
775.0,59.6,68.1,63.2,63.6,4.2
777.5,59.2,68.1,63.0,63.4,4.4
780.0,59.5,67.2,63.7,63.5,3.9
782.5,58.3,67.9,64.1,63.4,4.8
785.0,57.6,68.7,63.7,63.4,5.5
787.5,58.8,69.3,64.2,64.1,5.2
790.0,57.7,70.1,65.4,64.4,6.2
792.5,57.0,69.3,63.8,63.4,6.2
795.0,56.9,68.9,63.7,63.2,6.0
797.5,56.9,69.2,64.7,63.6,6.2
800.0,57.3,69.2,65.4,64.0,6.1
802.5,56.8,69.0,64.3,63.4,6.2
805.0,57.0,69.3,65.4,63.9,6.3
807.5,57.4,69.0,64.6,63.7,5.9
810.0,58.8,68.3,64.0,63.7,4.8
812.5,58.0,68.7,64.4,63.7,5.4
815.0,57.3,68.9,64.1,63.4,5.8
817.5,57.7,68.2,64.4,63.4,5.3
820.0,56.7,68.5,64.1,63.1,5.9
822.5,56.2,68.5,63.3,62.7,6.2
825.0,55.9,68.4,63.7,62.7,6.3
827.5,54.9,68.6,63.5,62.3,6.9
830.0,55.7,67.4,64.3,62.5,6.1
832.5,55.0,67.8,64.9,62.6,6.7
835.0,54.4,67.7,65.9,62.7,7.2
837.5,54.4,67.6,65.6,62.6,7.1
840.0,54.1,66.6,66.1,62.3,7.0
842.5,54.0,67.2,64.8,62.0,7.0
845.0,55.6,66.8,65.4,62.6,6.1
847.5,54.4,68.1,64.7,62.4,7.2
850.0,55.0,66.8,65.4,62.4,6.4
852.5,54.5,66.6,65.5,62.2,6.7
855.0,54.3,67.0,63.8,61.7,6.6
857.5,55.2,66.5,63.6,61.8,5.9
860.0,53.4,66.1,63.9,61.1,6.8
862.5,53.9,64.9,64.1,61.0,6.1
865.0,54.7,64.3,64.5,61.2,5.6
867.5,55.7,65.8,63.4,61.6,5.3
870.0,53.8,66.7,63.2,61.2,6.6
872.5,53.5,64.2,63.3,60.3,5.9
875.0,53.3,65.1,63.4,60.6,6.4
877.5,54.2,63.9,62.9,60.3,5.4
880.0,53.5,65.9,62.8,60.7,6.4
882.5,52.8,65.2,62.2,60.1,6.5
885.0,52.8,64.6,62.5,60.0,6.3
887.5,52.4,64.8,63.2,60.1,6.8
890.0,52.3,63.9,63.1,59.7,6.5
892.5,51.9,63.5,62.6,59.3,6.4
895.0,52.1,63.8,62.0,59.3,6.3
897.5,52.2,65.4,62.7,60.1,6.9
900.0,52.6,66.2,61.9,60.2,6.9
902.5,53.0,66.6,63.3,61.0,7.1
905.0,52.4,66.0,62.5,60.3,7.1
907.5,53.8,65.3,62.7,60.6,6.0
910.0,53.3,65.7,62.4,60.5,6.4
912.5,54.3,65.3,62.9,60.8,5.8
915.0,54.2,64.6,63.1,60.6,5.6
917.5,54.4,64.9,62.8,60.7,5.5
920.0,53.9,65.1,62.5,60.5,5.9
922.5,51.9,67.5,63.2,60.9,8.1
925.0,52.2,65.0,62.3,59.8,6.7
927.5,51.7,63.7,62.1,59.2,6.5
930.0,51.3,64.2,63.3,59.6,7.2
932.5,51.9,65.1,63.0,60.0,7.1
935.0,51.4,65.0,62.6,59.7,7.2
937.5,51.1,65.7,61.2,59.3,7.5
940.0,50.7,64.5,63.0,59.4,7.6
942.5,49.8,65.1,61.9,58.9,8.0
945.0,49.1,63.6,61.5,58.1,7.8
947.5,49.0,64.6,61.3,58.3,8.2
950.0,48.2,66.8,60.5,58.5,9.5
952.5,49.1,66.4,60.5,58.7,8.8
955.0,49.5,68.2,59.8,59.2,9.4
957.5,49.1,67.8,60.1,59.0,9.4
960.0,49.2,66.8,60.3,58.8,8.9
962.5,49.2,66.8,60.0,58.7,8.9
965.0,49.5,67.4,60.0,59.0,9.0
967.5,49.4,65.5,60.2,58.4,8.2
970.0,49.5,65.9,60.7,58.7,8.4
972.5,51.0,65.0,59.8,58.6,7.1
975.0,50.0,64.2,60.8,58.3,7.4
977.5,50.6,65.1,59.7,58.5,7.3
980.0,49.6,64.9,60.3,58.3,7.8
982.5,50.8,64.4,59.8,58.3,6.9
985.0,50.6,65.2,60.9,58.9,7.5
987.5,50.3,63.8,60.1,58.1,7.0
990.0,50.6,63.6,61.3,58.5,7.0
992.5,51.1,63.1,62.3,58.8,6.7
995.0,50.6,64.2,62.0,58.9,7.3
997.5,50.2,64.6,61.0,58.6,7.5
1000.0,50.0,63.5,60.7,58.1,7.1
1002.5,50.2,63.9,61.4,58.5,7.3
1005.0,49.4,63.3,60.0,57.6,7.3
1007.5,49.3,63.5,60.2,57.7,7.4
1010.0,48.8,64.1,61.3,58.1,8.2
1012.5,48.7,62.7,60.8,57.4,7.6
1015.0,49.0,62.9,60.2,57.4,7.4
1017.5,49.7,63.4,59.6,57.6,7.1
1020.0,48.9,64.4,60.4,57.9,8.0
1022.5,48.4,64.1,59.7,57.4,8.1
1025.0,48.9,64.8,60.4,58.1,8.2
1027.5,50.1,65.0,60.5,58.5,7.7
1030.0,50.3,63.7,60.9,58.3,7.1
1032.5,49.2,65.3,60.2,58.2,8.2
1035.0,49.2,64.6,60.1,58.0,7.9
1037.5,48.6,64.4,60.9,58.0,8.3
1040.0,48.0,66.0,61.6,58.5,9.4
1042.5,48.9,65.5,61.8,58.7,8.7
1045.0,50.0,64.9,61.4,58.8,7.8
1047.5,49.1,64.5,62.0,58.5,8.2
1050.0,48.5,65.0,62.2,58.5,8.8
1052.5,48.4,64.4,62.2,58.3,8.7
1055.0,49.7,64.8,62.9,59.2,8.2
1057.5,49.4,65.2,62.1,58.9,8.3
1060.0,49.5,64.4,61.5,58.5,7.9
1062.5,49.5,63.0,60.8,57.8,7.2
1065.0,49.2,64.2,58.8,57.4,7.6
1067.5,49.9,64.3,60.0,58.1,7.4
1070.0,50.0,65.0,59.6,58.2,7.6
1072.5,49.9,64.5,59.5,58.0,7.4
1075.0,49.3,64.0,59.7,57.7,7.6
1077.5,49.2,63.0,60.2,57.5,7.3
1080.0,49.1,63.3,60.7,57.7,7.6
1082.5,49.6,62.7,60.2,57.5,6.9
1085.0,50.2,63.7,59.5,57.8,6.9
1087.5,50.3,63.9,60.4,58.2,7.0
1090.0,50.1,63.3,59.8,57.7,6.8
1092.5,49.4,63.4,60.8,57.9,7.5
1095.0,49.5,63.5,61.0,58.0,7.5
1097.5,50.8,63.1,60.0,58.0,6.4
1100.0,51.0,64.0,59.9,58.3,6.6
1102.5,51.2,64.1,60.2,58.5,6.6
1105.0,52.0,63.8,59.0,58.3,5.9
1107.5,52.7,64.4,58.9,58.7,5.8
1110.0,52.4,62.6,58.5,57.9,5.1
1112.5,51.3,63.2,58.8,57.7,6.0
1115.0,51.6,62.6,58.4,57.5,5.5
1117.5,50.9,62.5,60.1,57.8,6.1
1120.0,51.4,62.7,59.2,57.8,5.8
1122.5,50.6,62.5,58.8,57.3,6.1
1125.0,50.5,61.7,58.8,57.0,5.8
1127.5,49.4,63.9,59.4,57.6,7.4
1130.0,49.5,63.2,58.7,57.1,7.0
1132.5,49.7,63.6,58.5,57.3,7.0
1135.0,48.9,63.2,59.1,57.1,7.3
1137.5,49.2,63.3,60.2,57.6,7.4
1140.0,49.9,63.0,58.8,57.2,6.7
1142.5,49.5,62.2,59.9,57.2,6.8
1145.0,49.0,62.5,59.2,56.9,7.0
1147.5,49.1,63.4,59.7,57.4,7.4
1150.0,49.6,62.3,59.3,57.1,6.7
1152.5,49.7,61.6,58.1,56.5,6.1
1155.0,49.2,63.1,57.3,56.5,7.0
1157.5,48.4,62.8,59.4,56.9,7.5
1160.0,48.3,63.1,59.7,57.0,7.7
1162.5,49.5,63.3,59.8,57.5,7.2
1165.0,48.2,63.5,59.8,57.2,7.9
1167.5,47.7,63.2,60.3,57.1,8.2
1170.0,48.4,62.7,59.8,57.0,7.6
1172.5,48.3,63.0,60.3,57.2,7.8
1175.0,47.9,63.5,60.1,57.2,8.2
1177.5,48.9,63.3,59.9,57.4,7.5
1180.0,49.3,61.6,58.7,56.5,6.5
1182.5,49.4,62.4,58.8,56.8,6.7
1185.0,49.5,62.1,59.5,57.0,6.7
1187.5,47.8,61.9,59.6,56.4,7.6
1190.0,48.6,62.1,58.9,56.5,7.1
1192.5,49.4,61.8,60.0,57.1,6.7
1195.0,50.5,61.7,59.5,57.2,6.0
1197.5,50.9,62.4,59.5,57.6,6.0
1200.0,50.5,61.5,59.5,57.2,5.9
1202.5,51.0,63.5,61.5,58.7,6.7
1205.0,50.9,62.5,61.4,58.3,6.4
1207.5,50.9,62.8,61.7,58.5,6.6
1210.0,50.4,62.9,62.4,58.6,7.1
1212.5,50.9,62.2,60.5,57.9,6.1
1215.0,51.6,62.4,61.3,58.4,5.9
1217.5,50.4,63.0,62.1,58.5,7.0
1220.0,51.7,63.2,61.2,58.7,6.1
1222.5,51.7,63.0,60.9,58.5,6.0
1225.0,50.6,62.0,59.2,57.3,5.9
1227.5,51.4,62.8,61.2,58.5,6.2
1230.0,51.6,63.6,60.2,58.5,6.2
1232.5,51.5,63.4,60.5,58.5,6.2
1235.0,50.6,63.3,61.2,58.3,6.8
1237.5,50.5,65.0,61.7,59.1,7.6
1240.0,50.3,64.1,60.5,58.3,7.2
1242.5,50.2,64.6,60.6,58.5,7.4
1245.0,50.7,63.7,61.0,58.5,6.9
1247.5,49.4,64.7,61.2,58.4,8.0
1250.0,49.7,64.0,60.8,58.2,7.5
1252.5,49.9,64.7,61.5,58.7,7.8
1255.0,49.9,64.9,60.8,58.5,7.7
1257.5,48.8,64.8,61.5,58.4,8.4
1260.0,48.7,65.2,60.2,58.0,8.5
1262.5,48.0,66.1,61.2,58.4,9.4
1265.0,48.7,65.1,61.0,58.3,8.5
1267.5,48.2,65.1,60.4,57.9,8.7
1270.0,48.6,65.6,61.2,58.5,8.9
1272.5,48.3,65.3,61.7,58.4,9.0
1275.0,48.7,65.2,62.2,58.7,8.8
1277.5,48.4,65.2,62.9,58.8,9.1
1280.0,48.2,65.4,63.2,58.9,9.4
1282.5,49.1,65.1,62.6,59.0,8.6
1285.0,50.6,64.5,64.0,59.7,7.9
1287.5,50.0,66.4,63.5,60.0,8.8
1290.0,50.1,66.3,62.6,59.6,8.5
1292.5,50.2,67.0,63.1,60.1,8.8
1295.0,49.5,67.4,64.1,60.3,9.5
1297.5,48.3,66.9,63.2,59.5,9.8
1300.0,48.1,67.3,64.0,59.8,10.3
1302.5,49.2,66.8,64.0,60.0,9.4
1305.0,48.7,66.1,64.0,59.6,9.5
1307.5,49.3,65.7,64.4,59.8,9.1
1310.0,49.7,65.3,63.6,59.5,8.6
1312.5,49.6,65.6,63.8,59.7,8.8
1315.0,50.2,65.4,64.4,60.0,8.5
1317.5,50.6,67.1,63.7,60.5,8.7
1320.0,51.2,65.6,64.2,60.3,7.9
1322.5,50.8,65.5,65.4,60.5,8.5
1325.0,50.7,66.1,65.1,60.6,8.6
1327.5,49.7,66.5,65.1,60.4,9.3
1330.0,50.3,66.2,63.9,60.1,8.6
1332.5,48.7,66.5,64.2,59.8,9.7
1335.0,48.9,67.5,64.6,60.3,10.0
1337.5,48.6,68.1,65.2,60.6,10.6
1340.0,49.1,67.5,65.4,60.7,10.1
1342.5,48.5,67.1,66.1,60.5,10.5
1345.0,48.9,67.6,65.9,60.8,10.4
1347.5,48.6,68.4,66.5,61.2,10.9
1350.0,49.2,66.9,65.6,60.6,9.9
1352.5,50.4,67.5,65.2,61.0,9.3
1355.0,51.1,67.4,65.2,61.3,8.8
1357.5,51.2,67.6,66.8,61.9,9.2
1360.0,51.3,68.1,66.5,61.9,9.3
1362.5,51.7,67.9,66.6,62.1,9.0
1365.0,51.4,68.5,64.3,61.4,8.9
1367.5,50.7,68.9,64.8,61.5,9.6
1370.0,51.0,68.5,63.7,61.1,9.0
1372.5,50.1,66.9,64.9,60.7,9.2
1375.0,49.9,68.9,64.4,61.1,9.9
1377.5,50.3,69.2,65.2,61.5,10.0
1380.0,49.9,68.9,65.0,61.3,10.0
1382.5,49.3,70.2,64.2,61.2,10.8
1385.0,49.4,70.2,63.0,60.9,10.5
1387.5,49.2,70.5,63.5,61.1,10.8
1390.0,49.5,71.3,64.2,61.7,11.1
1392.5,49.3,71.2,64.3,61.6,11.2
1395.0,50.1,70.7,64.4,61.8,10.5
1397.5,50.2,70.7,66.3,62.4,10.8
1400.0,51.2,69.6,64.4,61.7,9.5
1402.5,51.5,70.2,64.5,62.1,9.6
1405.0,52.0,70.5,64.8,62.4,9.5
1407.5,51.6,71.2,65.2,62.6,10.0
1410.0,50.9,70.2,65.4,62.2,10.0
1412.5,51.3,70.5,65.6,62.5,10.0
1415.0,51.0,70.5,66.2,62.5,10.3
1417.5,50.7,70.1,65.4,62.0,10.1
1420.0,49.9,70.3,66.6,62.3,10.9
1422.5,49.7,69.4,65.1,61.4,10.4
1425.0,48.9,70.4,66.1,61.8,11.4
1427.5,49.0,71.1,67.2,62.4,11.8
1430.0,49.0,71.5,65.6,62.1,11.7
1432.5,49.3,71.2,66.8,62.4,11.6
1435.0,49.1,72.2,66.2,62.5,12.0
1437.5,50.3,72.9,65.1,62.8,11.5
1440.0,50.1,72.4,64.5,62.3,11.3
1442.5,49.8,71.2,66.1,62.4,11.2
1445.0,50.7,71.1,65.8,62.5,10.6
1447.5,50.2,71.2,66.3,62.5,11.0
1450.0,50.1,71.7,66.3,62.7,11.2
1452.5,50.1,70.5,65.5,62.0,10.7
1455.0,50.0,69.8,66.0,61.9,10.5
1457.5,49.9,69.7,66.6,62.1,10.7
1460.0,50.0,70.5,66.3,62.3,10.8
1462.5,49.6,71.6,67.4,62.9,11.6
1465.0,49.7,71.1,66.8,62.5,11.4
1467.5,51.0,71.1,66.2,62.8,10.4
1470.0,51.3,71.3,66.1,62.9,10.4
1472.5,51.0,71.3,66.4,62.9,10.6
1475.0,50.7,71.7,66.4,63.0,10.9
1477.5,50.8,72.4,66.9,63.4,11.2
1480.0,51.6,73.0,66.1,63.6,10.9
1482.5,52.1,72.3,67.3,63.9,10.5
1485.0,52.3,71.2,66.1,63.2,9.8
1487.5,51.4,71.8,67.0,63.4,10.6
1490.0,52.4,71.9,67.9,64.1,10.3
1492.5,52.3,73.5,66.9,64.2,10.9
1495.0,52.1,73.7,66.1,64.0,10.9
1497.5,52.3,72.7,66.3,63.8,10.4
1500.0,52.3,72.8,67.6,64.2,10.6
1502.5,52.3,74.2,67.4,64.7,11.2
1505.0,52.7,72.8,67.9,64.5,10.5
1507.5,52.4,73.8,68.6,64.9,11.1
1510.0,51.7,74.0,67.7,64.4,11.5
1512.5,52.3,75.1,66.8,64.7,11.5
1515.0,52.4,74.9,67.0,64.7,11.4
1517.5,52.7,75.6,66.9,65.1,11.5
1520.0,52.7,74.7,68.9,65.4,11.4
1522.5,53.6,74.0,70.1,65.9,10.8
1525.0,53.3,74.8,69.5,65.9,11.2
1527.5,52.2,74.3,68.5,65.0,11.5
1530.0,53.4,75.2,68.9,65.8,11.2
1532.5,53.2,76.7,68.5,66.1,11.9
1535.0,52.3,76.3,68.9,65.9,12.3
1537.5,52.6,77.7,69.8,66.7,12.8
1540.0,52.2,78.4,69.9,66.8,13.4
1542.5,52.6,79.0,69.8,67.1,13.4
1545.0,53.4,78.7,69.2,67.1,12.8
1547.5,53.3,78.4,69.1,66.9,12.7
1550.0,53.1,77.3,69.4,66.6,12.3
1552.5,54.1,77.6,69.0,66.9,11.9
1555.0,55.1,77.6,68.2,67.0,11.3
1557.5,54.0,76.6,67.5,66.1,11.4
1560.0,53.2,78.5,68.5,66.7,12.7
1562.5,53.5,78.5,68.6,66.9,12.6
1565.0,53.9,78.2,69.3,67.1,12.3
1567.5,52.8,78.4,68.4,66.5,12.9
1570.0,53.7,79.1,68.9,67.2,12.8
1572.5,53.7,81.0,70.2,68.3,13.8
1575.0,53.5,81.1,70.1,68.2,13.9
1577.5,53.9,81.2,71.6,68.9,13.9
1580.0,53.8,82.1,71.3,69.0,14.3
1582.5,54.1,82.5,71.6,69.4,14.3
1585.0,54.3,81.5,71.4,69.1,13.7
1587.5,54.7,82.8,71.2,69.6,14.1
1590.0,54.3,82.4,71.4,69.4,14.2
1592.5,55.0,81.6,72.0,69.5,13.4
1595.0,55.6,82.7,72.3,70.2,13.7
1597.5,55.8,81.0,70.8,69.2,12.7
1600.0,55.8,82.0,70.7,69.5,13.1
1602.5,55.8,81.0,71.1,69.3,12.7
1605.0,55.7,81.3,72.3,69.7,12.9
1607.5,56.3,82.4,72.2,70.3,13.2
1610.0,56.2,80.4,71.9,69.5,12.3
1612.5,56.0,81.2,73.5,70.2,12.9
1615.0,56.0,80.6,72.9,69.9,12.6
1617.5,55.7,81.7,71.4,69.6,13.1
1620.0,56.3,82.7,71.5,70.2,13.2
1622.5,55.8,82.2,71.3,69.8,13.2
1625.0,56.4,83.1,70.5,70.0,13.4
1627.5,57.1,85.0,72.1,71.4,14.0
1630.0,57.0,83.7,72.1,70.9,13.4
1632.5,56.0,84.1,73.1,71.1,14.2
1635.0,56.5,83.7,73.0,71.0,13.7
1637.5,56.2,84.4,74.3,71.6,14.3
1640.0,56.5,84.7,72.9,71.4,14.1
1642.5,56.6,83.8,74.3,71.6,13.8
1645.0,56.8,86.5,74.0,72.4,14.9
1647.5,58.0,84.9,75.6,72.8,13.6
1650.0,57.5,84.7,75.5,72.5,13.8
1652.5,58.3,84.0,75.5,72.6,13.1
1655.0,58.6,85.0,76.4,73.3,13.5
1657.5,57.6,85.6,77.7,73.6,14.4
1660.0,58.8,86.4,76.6,73.9,14.0
1662.5,59.2,86.0,75.7,73.6,13.5
1665.0,58.8,85.1,75.6,73.2,13.3
1667.5,58.7,84.8,75.9,73.1,13.2
1670.0,59.1,86.2,75.2,73.5,13.6
1672.5,58.8,85.8,75.7,73.4,13.7
1675.0,60.0,85.6,77.0,74.2,13.0
1677.5,58.4,84.4,76.2,73.0,13.3
1680.0,59.6,85.4,76.4,73.8,13.1
1682.5,59.3,85.0,77.1,73.8,13.2
1685.0,59.8,86.3,77.2,74.5,13.5
1687.5,59.6,85.5,76.3,73.8,13.1
1690.0,59.2,85.6,77.6,74.1,13.6
1692.5,61.2,86.2,78.2,75.2,12.8
1695.0,60.0,86.3,78.3,74.8,13.5
1697.5,61.2,86.3,79.1,75.5,12.9
1700.0,60.1,86.3,77.4,74.6,13.4
1702.5,60.5,87.6,78.8,75.6,13.8
1705.0,60.3,85.7,79.8,75.2,13.3
1707.5,60.7,86.0,79.4,75.4,13.1
1710.0,60.3,84.9,77.5,74.2,12.6
1712.5,61.3,86.9,78.8,75.6,13.1
1715.0,61.1,88.5,78.0,75.9,13.8
1717.5,62.6,89.1,80.5,77.4,13.5
1720.0,61.9,87.3,79.9,76.4,13.1
1722.5,61.0,87.4,79.4,75.9,13.5
1725.0,60.7,87.9,80.4,76.3,14.0
1727.5,61.6,88.2,82.1,77.3,13.9
1730.0,61.3,87.3,81.5,76.7,13.6
1732.5,61.3,88.1,81.1,76.8,13.9
1735.0,61.7,87.5,81.2,76.8,13.5
1737.5,61.0,88.4,80.8,76.8,14.1
1740.0,62.0,88.3,81.4,77.2,13.6
1742.5,61.6,87.8,81.7,77.0,13.7
1745.0,62.5,87.4,82.9,77.6,13.2
1747.5,62.5,88.7,83.0,78.1,13.8
1750.0,63.4,87.5,83.0,78.0,12.8
1752.5,64.0,90.3,83.3,79.2,13.6
1755.0,63.5,88.5,84.9,79.0,13.5
1757.5,63.1,89.9,83.4,78.8,14.0
1760.0,61.7,89.9,84.5,78.7,15.0
1762.5,62.6,90.2,84.5,79.1,14.5
1765.0,64.1,91.8,85.1,80.3,14.4
1767.5,61.7,92.3,85.8,79.9,16.1
1770.0,63.6,89.3,83.8,78.9,13.5
1772.5,62.7,90.1,85.8,79.5,14.7
1775.0,63.5,92.1,84.1,79.9,14.8
1777.5,64.3,91.7,85.1,80.4,14.3
1780.0,64.2,91.4,85.1,80.2,14.3
1782.5,65.5,94.2,85.7,81.8,14.7
1785.0,66.7,90.8,85.9,81.1,12.8
1787.5,65.0,92.4,86.4,81.3,14.4
1790.0,64.9,90.9,85.5,80.4,13.7
1792.5,64.6,92.3,87.6,81.5,14.8
1795.0,66.7,93.5,90.1,83.4,14.6
1797.5,65.1,91.9,90.8,82.6,15.2
1800.0,66.9,93.6,87.0,82.5,13.9
1802.5,64.7,92.7,89.4,82.3,15.3
1805.0,64.7,93.9,89.8,82.8,15.8
1807.5,65.1,94.6,89.5,83.0,15.8
1810.0,65.8,94.6,92.0,84.2,15.9
1812.5,65.7,94.4,91.9,84.0,15.9
1815.0,66.7,95.1,91.9,84.5,15.6
1817.5,67.0,95.0,92.3,84.8,15.5
1820.0,67.3,95.3,93.2,85.2,15.6
1822.5,68.2,96.0,93.2,85.8,15.3
1825.0,68.4,93.0,93.7,85.0,14.4
1827.5,68.7,95.0,90.9,84.9,14.2
1830.0,68.1,95.1,92.5,85.2,14.9
1832.5,69.2,96.3,92.4,86.0,14.7
1835.0,68.9,95.5,91.7,85.4,14.4
1837.5,69.8,94.8,92.3,85.6,13.8
1840.0,69.3,96.8,92.0,86.1,14.7
1842.5,70.1,98.1,91.7,86.6,14.6
1845.0,70.3,96.0,91.7,86.0,13.8
1847.5,70.3,96.6,91.5,86.1,14.0
1850.0,70.8,97.6,91.5,86.6,14.0
1852.5,70.0,97.1,92.8,86.6,14.6
1855.0,70.2,96.9,93.6,86.9,14.5
1857.5,70.6,98.4,93.1,87.4,14.8
1860.0,71.2,98.9,93.3,87.8,14.6
1862.5,70.7,96.2,92.2,86.4,13.7
1865.0,70.5,97.3,91.5,86.4,14.1
1867.5,71.7,97.0,93.0,87.2,13.6
1870.0,72.0,96.9,93.2,87.4,13.5
1872.5,71.8,98.7,92.8,87.8,14.2
1875.0,72.3,98.1,94.8,88.4,14.0
1877.5,73.3,96.9,96.6,89.0,13.5
1880.0,72.8,99.1,92.9,88.3,13.8
1882.5,72.7,99.1,94.3,88.7,14.0
1885.0,74.0,98.6,96.5,89.7,13.7
1887.5,72.9,97.8,94.2,88.3,13.5
1890.0,74.0,99.1,93.8,89.0,13.2
1892.5,75.0,99.2,95.5,89.9,13.1
1895.0,74.6,99.7,93.6,89.3,13.1
1897.5,73.6,99.9,96.9,90.1,14.4
1900.0,73.5,101.2,95.7,90.2,14.7
1902.5,73.4,101.9,96.9,90.7,15.2
1905.0,74.1,101.7,94.1,90.0,14.3
1907.5,73.8,102.1,95.0,90.3,14.8
1910.0,74.4,100.1,94.4,89.6,13.5
1912.5,74.3,100.4,95.0,89.9,13.7
1915.0,76.0,101.3,96.7,91.3,13.5
1917.5,76.0,98.1,95.9,90.0,12.2
1920.0,77.1,100.4,97.5,91.7,12.7
1922.5,76.5,101.8,97.0,91.7,13.4
1925.0,77.6,102.6,96.8,92.3,13.1
1927.5,76.6,101.9,97.2,91.9,13.4
1930.0,76.3,101.6,97.0,91.6,13.5
1932.5,75.6,102.9,96.8,91.8,14.3
1935.0,76.1,103.2,97.5,92.3,14.3
1937.5,77.4,103.9,95.8,92.4,13.6
1940.0,77.0,102.4,95.3,91.6,13.1
1942.5,77.5,105.2,97.2,93.3,14.2
1945.0,78.8,103.8,97.2,93.3,13.0
1947.5,78.7,104.5,94.8,92.7,13.0
1950.0,79.5,103.2,96.7,93.1,12.2
1952.5,80.0,105.1,95.7,93.6,12.7
1955.0,79.4,104.0,95.5,93.0,12.5
1957.5,78.3,103.2,96.4,92.6,12.9
1960.0,79.6,105.4,96.8,93.9,13.2
1962.5,81.0,104.5,97.9,94.5,12.1
1965.0,81.6,103.2,96.5,93.8,11.1
1967.5,80.7,102.7,96.5,93.3,11.4
1970.0,80.7,104.5,97.3,94.2,12.2
1972.5,82.2,104.5,96.0,94.2,11.3
1975.0,81.4,104.0,95.7,93.7,11.4
1977.5,82.1,105.6,96.1,94.6,11.8
1980.0,82.7,105.6,96.6,95.0,11.5
1982.5,83.6,106.6,96.3,95.5,11.5
1985.0,84.3,106.1,97.1,95.8,11.0
1987.5,82.9,107.7,97.6,96.1,12.5
1990.0,83.4,107.5,96.7,95.8,12.1
1992.5,85.4,109.4,97.9,97.5,12.0
1995.0,86.3,108.5,95.8,96.9,11.1
1997.5,86.5,110.4,96.1,97.7,12.0
2000.0,84.6,110.9,95.8,97.1,13.2
2002.5,85.1,110.8,96.1,97.3,12.9
2005.0,84.6,109.3,96.5,96.8,12.4
2007.5,85.4,112.2,95.8,97.8,13.5
2010.0,84.7,111.8,96.3,97.6,13.6
2012.5,84.9,109.8,95.8,96.8,12.5
2015.0,84.6,112.6,95.4,97.5,14.1
2017.5,86.6,109.9,97.0,97.8,11.7
2020.0,86.9,109.8,97.5,98.1,11.4
2022.5,88.9,110.0,96.8,98.6,10.7
2025.0,88.0,109.6,97.1,98.2,10.9
2027.5,91.1,111.1,99.1,100.4,10.1
2030.0,89.8,111.7,97.2,99.6,11.1
2032.5,91.3,111.7,99.8,100.9,10.2
2035.0,91.4,111.9,99.8,101.0,10.3
2037.5,90.8,114.2,98.3,101.1,11.9
2040.0,91.6,112.0,97.3,100.3,10.5
2042.5,92.2,113.4,98.0,101.2,10.9
2045.0,91.2,112.2,99.8,101.1,10.6
2047.5,92.5,112.9,97.5,101.0,10.6
2050.0,91.2,114.0,97.7,101.0,11.8
2052.5,93.1,114.7,97.1,101.6,11.5
2055.0,94.1,113.5,99.5,102.4,10.0
2057.5,93.5,114.6,97.5,101.8,11.2
2060.0,93.7,113.6,99.7,102.3,10.2
2062.5,94.7,114.4,98.3,102.5,10.5
2065.0,94.4,115.4,100.6,103.5,10.8
2067.5,94.9,114.5,98.5,102.7,10.4
2070.0,95.6,114.0,100.1,103.3,9.6
2072.5,95.3,115.7,100.3,103.8,10.6
2075.0,97.1,113.8,100.6,103.8,8.8
2077.5,97.3,113.2,101.6,104.0,8.3
2080.0,98.2,113.4,102.3,104.7,7.9
2082.5,98.6,112.7,101.7,104.3,7.4
2085.0,98.4,114.4,102.8,105.2,8.2
2087.5,98.4,112.5,100.7,103.9,7.6
2090.0,101.7,112.4,101.2,105.1,6.3
2092.5,100.8,113.2,100.4,104.8,7.3
2095.0,101.3,112.8,99.5,104.5,7.2
2097.5,100.9,111.4,99.8,104.0,6.4
2100.0,101.9,112.8,100.5,105.1,6.7
2102.5,101.2,112.2,100.7,104.7,6.5
2105.0,103.0,112.9,102.1,106.0,6.0
2107.5,101.9,111.9,99.1,104.3,6.7
2110.0,103.4,112.7,99.1,105.1,6.9
2112.5,105.2,114.2,100.6,106.7,6.9
2115.0,104.8,114.1,99.6,106.2,7.3
2117.5,104.4,112.3,100.3,105.7,6.1
2120.0,105.6,113.9,99.0,106.2,7.4
2122.5,106.2,111.8,98.9,105.6,6.4
2125.0,105.2,115.2,101.2,107.2,7.2
2127.5,107.7,113.6,99.8,107.0,6.9
2130.0,105.7,113.3,99.0,106.0,7.2
2132.5,109.2,111.0,99.7,106.6,6.1
2135.0,108.0,114.2,98.8,107.0,7.7
2137.5,109.7,112.6,100.4,107.5,6.4
2140.0,108.0,113.3,98.0,106.4,7.7
2142.5,109.0,111.4,99.1,106.5,6.6
2145.0,108.8,112.7,97.7,106.4,7.8
2147.5,109.6,111.9,98.7,106.7,7.0
2150.0,110.2,111.3,97.3,106.3,7.8
2152.5,109.8,112.5,97.9,106.7,7.8
2155.0,109.9,112.6,98.2,106.9,7.6
2157.5,111.5,111.5,97.0,106.7,8.4
2160.0,110.5,112.8,96.7,106.7,8.7
2162.5,112.3,114.3,96.3,107.6,9.9
2165.0,112.4,114.0,95.0,107.2,10.6
2167.5,112.6,114.3,97.2,108.0,9.4
2170.0,112.8,115.7,96.9,108.5,10.1
2172.5,114.0,114.9,97.2,108.7,9.9
2175.0,114.4,114.7,98.2,109.1,9.5
2177.5,116.4,113.7,100.1,110.1,8.7
2180.0,114.5,116.1,97.8,109.5,10.1
2182.5,114.6,114.2,97.7,108.8,9.6
2185.0,116.9,116.8,96.3,110.0,11.8
2187.5,117.4,114.0,95.7,109.0,11.7
2190.0,116.4,114.7,95.6,108.9,11.5
2192.5,117.3,116.1,94.0,109.1,13.1
2195.0,118.7,116.7,95.6,110.3,12.8
2197.5,118.5,114.6,92.7,108.6,13.9
2200.0,119.8,115.2,94.3,109.8,13.6
2202.5,120.0,115.8,95.0,110.3,13.4
2205.0,120.0,115.2,93.0,109.4,14.4
2207.5,120.3,115.9,92.6,109.6,14.9
2210.0,119.5,115.0,92.5,109.0,14.5
2212.5,118.7,116.3,89.6,108.2,16.2
2215.0,119.5,118.2,93.9,110.5,14.4
2217.5,118.1,116.6,92.3,109.0,14.5
2220.0,115.8,116.7,90.4,107.6,14.9
2222.5,117.6,116.7,90.8,108.4,15.2
2225.0,117.9,117.2,89.2,108.1,16.4
2227.5,116.4,117.8,89.4,107.9,16.1
2230.0,118.1,118.4,89.4,108.6,16.6
2232.5,117.7,117.1,90.0,108.3,15.8
2235.0,119.6,118.3,89.6,109.2,17.0
2237.5,121.0,118.8,88.5,109.5,18.2
2240.0,120.8,118.8,89.6,109.7,17.5
2242.5,121.2,117.0,89.9,109.4,17.0
2245.0,121.3,120.2,89.7,110.4,17.9
2247.5,121.6,118.8,88.4,109.6,18.4
2250.0,121.2,119.7,88.0,109.6,18.7
2252.5,121.5,117.7,88.4,109.2,18.1
2255.0,121.3,121.7,89.1,110.7,18.7
2257.5,123.3,120.7,88.3,110.8,19.5
2260.0,122.5,118.6,88.9,110.0,18.4
2262.5,121.9,119.3,87.5,109.6,19.2
2265.0,122.2,119.8,88.2,110.1,19.0
2267.5,121.5,121.9,87.8,110.4,19.6
2270.0,122.6,123.0,87.2,110.9,20.5
2272.5,122.7,120.5,86.2,109.8,20.5
2275.0,123.9,121.8,87.8,111.1,20.3
2277.5,122.5,120.0,86.8,109.8,19.9
2280.0,121.6,121.6,86.4,109.9,20.3
2282.5,123.4,122.7,86.6,110.9,21.1
2285.0,123.6,121.7,84.1,109.8,22.3
2287.5,123.9,122.1,86.1,110.7,21.3
2290.0,123.9,121.7,83.8,109.8,22.5
2292.5,125.0,122.3,84.6,110.6,22.6
2295.0,124.6,121.6,83.6,110.0,22.9
2297.5,125.6,121.2,84.4,110.4,22.6
2300.0,125.6,121.6,84.0,110.4,23.0
2302.5,125.1,122.7,84.2,110.7,23.0
2305.0,123.4,122.9,84.3,110.2,22.4
2307.5,125.8,123.2,84.7,111.2,23.0
2310.0,123.6,124.3,84.1,110.6,23.0
2312.5,124.6,124.6,84.9,111.4,22.9
2315.0,124.4,125.6,85.2,111.7,23.0
2317.5,123.7,122.6,83.9,110.1,22.7
2320.0,124.6,123.6,84.3,110.8,23.0
2322.5,124.3,123.7,84.6,110.9,22.7
2325.0,123.6,122.9,83.7,110.1,22.8
2327.5,122.1,124.5,84.7,110.5,22.3
2330.0,120.5,123.1,83.3,108.9,22.2
2332.5,121.8,123.2,83.5,109.5,22.5
2335.0,120.7,123.0,84.2,109.3,21.8
2337.5,121.6,122.5,82.0,108.7,23.1
2340.0,120.3,125.2,83.3,109.6,22.9
2342.5,119.3,122.1,84.6,108.7,20.9
2345.0,118.2,122.7,83.1,108.0,21.7
2347.5,119.2,122.4,82.7,108.1,22.1
2350.0,116.8,123.8,83.6,108.1,21.4
2352.5,117.3,126.0,83.9,109.1,22.2
2355.0,116.5,122.0,83.3,107.3,20.9
2357.5,117.6,126.6,82.6,108.9,23.3
2360.0,117.3,124.4,82.9,108.2,22.2
2362.5,115.9,123.8,82.5,107.4,21.9
2365.0,116.3,125.1,84.1,108.5,21.6
2367.5,115.8,124.1,82.9,107.6,21.8
2370.0,115.6,125.5,83.5,108.2,22.0
2372.5,113.9,126.4,82.7,107.7,22.5
2375.0,112.3,126.8,82.1,107.0,22.8
2377.5,113.4,126.3,82.4,107.4,22.6
2380.0,112.8,124.4,82.4,106.5,21.7
2382.5,113.8,125.9,83.0,107.5,22.1
2385.0,113.9,123.3,82.9,106.7,21.2
2387.5,113.3,125.3,82.3,107.0,22.2
2390.0,111.5,126.9,82.9,107.1,22.3
2392.5,113.0,124.0,82.6,106.5,21.5
2395.0,111.2,125.8,82.5,106.5,22.0
2397.5,113.9,126.5,83.7,108.0,22.0
2400.0,112.1,125.9,82.1,106.7,22.4
2402.5,110.7,124.3,83.1,106.1,21.0
2405.0,110.5,123.7,83.2,105.8,20.7
2407.5,110.9,126.5,83.1,106.8,22.0
2410.0,108.5,126.5,83.1,106.1,21.8
2412.5,109.4,125.8,81.8,105.7,22.3
2415.0,107.1,126.2,84.3,105.9,21.0
2417.5,108.6,124.9,82.5,105.3,21.4
2420.0,107.0,123.9,83.1,104.7,20.5
2422.5,107.4,125.4,82.0,104.9,21.8
2425.0,106.0,123.6,83.2,104.2,20.2
2427.5,104.8,125.2,82.4,104.1,21.4
2430.0,104.2,125.9,82.7,104.3,21.6
2432.5,103.6,124.7,83.7,104.0,20.5
2435.0,102.6,122.9,84.5,103.3,19.2
2437.5,103.9,124.4,84.0,104.1,20.2
2440.0,103.5,126.5,84.2,104.7,21.1
2442.5,102.5,123.7,84.3,103.5,19.8
2445.0,104.1,122.5,83.1,103.3,19.7
2447.5,106.6,124.2,83.9,104.9,20.2
2450.0,105.8,125.0,84.4,105.1,20.3
2452.5,103.4,125.7,83.1,104.1,21.3
2455.0,102.7,125.3,84.2,104.1,20.6
2457.5,102.1,123.0,83.5,102.9,19.8
2460.0,102.2,124.1,84.4,103.6,19.8
2462.5,98.0,124.3,82.5,101.6,21.1
2465.0,96.5,122.5,83.7,100.9,19.8
2467.5,97.5,124.9,82.7,101.7,21.4
2470.0,96.3,125.6,83.6,101.9,21.5
2472.5,97.2,124.8,83.5,101.8,21.1
2475.0,96.8,124.8,84.4,102.0,20.7
2477.5,95.3,126.4,84.3,102.0,21.8
2480.0,94.8,125.2,84.3,101.4,21.2
2482.5,95.9,124.1,85.8,101.9,19.8
2485.0,94.9,122.4,84.5,100.6,19.6
2487.5,96.6,126.1,82.8,101.8,22.1
2490.0,94.6,124.1,85.2,101.3,20.3
2492.5,95.7,123.5,84.8,101.3,19.9
2495.0,95.5,124.5,84.5,101.5,20.7
2497.5,95.1,125.6,81.9,100.9,22.4
2500.0,94.5,126.5,83.7,101.5,22.3
2502.5,94.5,123.6,83.7,100.6,20.7
2505.0,92.6,123.2,82.0,99.3,21.4
2507.5,93.5,124.6,83.3,100.5,21.5
2510.0,92.7,124.3,83.5,100.2,21.4
2512.5,96.2,124.9,83.7,101.6,21.1
2515.0,92.6,123.5,83.3,99.8,21.0
2517.5,94.2,125.7,84.9,101.6,21.4
2520.0,92.1,123.3,84.9,100.1,20.4
2522.5,93.3,121.3,84.4,99.6,19.2
2525.0,91.7,121.6,84.4,99.2,19.7
2527.5,93.5,121.4,84.4,99.8,19.2
2530.0,93.5,122.6,84.1,100.1,20.1
2532.5,93.2,123.2,85.7,100.7,19.9
2535.0,93.3,121.2,85.0,99.8,19.0
2537.5,94.1,121.6,85.9,100.5,18.7
2540.0,92.9,121.3,85.9,100.1,18.8
2542.5,92.7,121.6,85.9,100.1,19.0
2545.0,92.0,121.7,84.6,99.4,19.6
2547.5,90.6,120.9,86.3,99.3,18.8
2550.0,91.7,121.2,85.9,99.6,18.9
2552.5,92.5,120.2,87.3,100.0,17.7
2555.0,92.0,120.3,87.4,99.9,17.8
2557.5,91.6,120.3,86.9,99.6,18.1
2560.0,91.5,121.3,85.7,99.5,19.1
2562.5,90.2,119.7,86.3,98.8,18.3
2565.0,91.4,119.3,87.2,99.3,17.5
2567.5,92.1,120.7,88.0,100.3,17.8
2570.0,92.7,119.9,88.0,100.2,17.2
2572.5,90.5,120.4,88.2,99.7,17.9
2575.0,89.7,121.2,88.8,99.9,18.4
2577.5,89.4,118.6,87.0,98.3,17.6
2580.0,87.8,121.1,87.5,98.8,19.3
2582.5,88.2,120.8,89.8,99.6,18.4
2585.0,87.7,120.9,87.5,98.7,19.3
2587.5,88.0,119.6,89.5,99.0,17.8
2590.0,88.3,118.3,89.7,98.7,16.9
2592.5,88.1,120.7,89.8,99.5,18.4
2595.0,86.8,120.6,89.2,98.9,18.8
2597.5,86.8,120.3,90.0,99.0,18.5
2600.0,88.3,119.8,89.4,99.2,17.8
2602.5,86.8,117.8,91.2,98.6,16.7
2605.0,87.4,118.7,89.7,98.6,17.4
2607.5,86.4,116.8,88.8,97.3,16.9
2610.0,86.3,115.2,89.9,97.1,15.7
2612.5,86.7,117.3,91.1,98.4,16.6
2615.0,87.4,118.7,89.1,98.4,17.6
2617.5,87.2,117.8,90.3,98.4,16.8
2620.0,89.2,120.9,89.7,99.9,18.1
2622.5,88.8,119.2,88.4,98.8,17.6
2625.0,89.4,119.6,89.3,99.5,17.5
2627.5,89.9,117.9,89.6,99.2,16.3
2630.0,89.7,120.8,89.8,100.1,17.9
2632.5,90.3,117.9,91.3,99.8,15.7
2635.0,88.9,117.8,91.0,99.2,16.1
2637.5,90.1,118.1,92.1,100.1,15.6
2640.0,89.0,118.7,93.6,100.4,15.9
2642.5,90.5,117.8,92.6,100.3,15.2
2645.0,89.4,119.2,92.6,100.4,16.3
2647.5,87.9,119.2,94.9,100.6,16.4
2650.0,87.1,118.8,93.9,99.9,16.7
2652.5,87.0,117.3,93.1,99.1,16.1
2655.0,87.0,118.7,94.3,100.0,16.6
2657.5,86.9,117.6,94.8,99.8,15.9
2660.0,86.7,117.5,95.1,99.8,16.0
2662.5,85.6,117.1,93.3,98.7,16.4
2665.0,86.6,115.7,94.0,98.8,15.1
2667.5,87.5,114.3,92.8,98.2,14.2
2670.0,85.6,114.6,94.0,98.1,14.9
2672.5,86.7,115.9,93.0,98.5,15.4
2675.0,86.1,114.2,94.9,98.4,14.3
2677.5,87.4,115.7,93.5,98.9,14.9
2680.0,87.7,115.6,94.3,99.2,14.6
2682.5,87.4,115.7,97.1,100.0,14.4
2685.0,86.4,114.2,95.2,98.6,14.2
2687.5,86.0,113.6,95.7,98.4,14.0
2690.0,87.1,113.2,96.6,99.0,13.2
2692.5,87.5,115.1,96.2,99.6,14.1
2695.0,87.9,112.9,97.4,99.4,12.6
2697.5,87.7,115.0,94.9,99.2,14.1
2700.0,88.6,114.1,97.9,100.2,12.9
2702.5,89.3,113.7,98.0,100.4,12.4
2705.0,86.8,112.6,98.9,99.5,12.9
2707.5,88.1,113.9,98.3,100.1,13.0
2710.0,88.4,111.6,99.4,99.8,11.6
2712.5,87.3,112.2,99.6,99.7,12.4
2715.0,88.5,113.4,101.0,100.9,12.4
2717.5,88.3,111.4,102.2,100.7,11.6
2720.0,86.9,111.7,102.9,100.5,12.6
2722.5,87.2,112.6,104.1,101.3,12.9
2725.0,88.2,112.8,104.6,101.9,12.5
2727.5,86.8,112.8,103.6,101.1,13.2
2730.0,87.5,111.7,104.5,101.2,12.4
2732.5,88.1,112.1,105.6,101.9,12.4
2735.0,88.3,113.0,104.7,102.0,12.6
2737.5,89.0,110.7,104.4,101.4,11.2
2740.0,88.9,109.7,106.7,101.8,11.2
2742.5,88.4,109.3,105.0,100.9,11.0
2745.0,88.8,110.5,107.5,102.2,11.8
2747.5,89.5,109.3,107.3,102.0,10.9
2750.0,89.0,109.7,106.6,101.8,11.2
2752.5,89.1,110.2,107.7,102.3,11.5
2755.0,89.6,110.2,106.9,102.2,11.1
2757.5,89.6,110.0,107.5,102.4,11.1
2760.0,92.3,108.9,111.5,104.2,10.5
2762.5,89.5,107.3,111.0,102.6,11.5
2765.0,91.2,108.9,109.4,103.2,10.3
2767.5,89.1,106.2,110.1,101.8,11.2
2770.0,91.3,109.4,112.3,104.3,11.4
2772.5,91.2,106.5,111.4,103.0,10.6
2775.0,90.8,106.6,114.1,103.8,11.9
2777.5,92.0,105.6,112.8,103.4,10.6
2780.0,91.0,106.9,113.5,103.8,11.6
2782.5,91.4,107.0,117.9,105.4,13.3
2785.0,88.9,106.4,115.9,103.7,13.7
2787.5,89.7,107.7,116.2,104.5,13.5
2790.0,89.9,107.7,119.9,105.8,15.1
2792.5,90.6,107.8,118.8,105.7,14.2
2795.0,91.1,108.8,119.9,106.6,14.5
2797.5,90.6,108.3,122.8,107.2,16.1
2800.0,89.7,111.7,120.6,107.3,15.9
2802.5,89.5,108.4,122.2,106.7,16.4
2805.0,90.8,106.6,120.6,106.0,14.9
2807.5,91.6,106.9,123.7,107.4,16.1
2810.0,91.6,108.0,124.4,108.0,16.4
2812.5,91.2,109.5,128.5,109.7,18.6
2815.0,92.5,107.6,126.5,108.9,17.1
2817.5,92.7,110.8,128.9,110.8,18.1
2820.0,92.9,108.5,130.0,110.5,18.6
2822.5,93.6,105.9,131.1,110.2,19.1
2825.0,92.6,106.7,130.9,110.1,19.4
2827.5,93.4,107.1,133.3,111.3,20.2
2830.0,96.8,108.0,132.1,112.3,18.0
2832.5,95.4,107.8,133.7,112.3,19.6
2835.0,96.7,106.9,136.4,113.3,20.6
2837.5,96.5,107.4,134.2,112.7,19.4
2840.0,95.6,103.8,135.2,111.6,20.9
2842.5,97.3,106.1,138.2,113.8,21.5
2845.0,96.5,104.5,140.8,113.9,23.6
2847.5,96.0,105.6,140.5,114.1,23.4
2850.0,96.1,106.2,141.7,114.7,24.0
2852.5,97.0,104.7,142.9,114.9,24.6
2855.0,95.9,103.6,143.7,114.4,25.7
2857.5,97.5,104.9,145.3,115.9,25.7
2860.0,97.7,104.6,147.3,116.5,26.8
2862.5,96.8,103.0,147.7,115.8,27.8
2865.0,98.8,102.3,148.3,116.5,27.6
2867.5,100.2,101.7,148.7,116.9,27.6
2870.0,98.5,101.1,151.0,116.9,29.6
2872.5,98.1,99.2,153.6,117.0,31.7
2875.0,99.4,97.9,153.0,116.7,31.4
2877.5,98.9,97.8,154.9,117.2,32.6
2880.0,98.2,96.9,158.4,117.8,35.1
2882.5,98.1,96.1,160.7,118.3,36.7
2885.0,99.1,95.6,161.7,118.8,37.2
2887.5,98.3,94.5,159.7,117.5,36.6
2890.0,98.5,92.4,161.2,117.4,38.0
2892.5,100.5,93.6,166.5,120.2,40.3
2895.0,99.8,92.6,167.2,119.9,41.1
2897.5,100.1,91.2,169.5,120.3,42.9
2900.0,100.0,87.6,172.7,120.1,46.0
2902.5,102.0,85.9,172.7,120.2,46.2
2905.0,100.7,83.5,173.0,119.1,47.5
2907.5,101.4,80.8,174.4,118.9,49.2
2910.0,101.9,78.5,173.2,117.9,49.3
2912.5,102.2,76.9,176.8,118.6,51.9
2915.0,101.4,73.1,178.9,117.8,54.8
2917.5,102.8,71.6,177.5,117.3,54.4
2920.0,103.4,68.8,174.8,115.7,54.1
2922.5,105.3,66.6,174.3,115.4,54.5
2925.0,106.3,65.2,172.4,114.6,54.1
2927.5,104.1,63.6,168.8,112.2,53.1
2930.0,105.3,62.7,164.2,110.7,51.0
2932.5,105.5,63.0,160.0,109.5,48.6
2935.0,105.9,60.7,153.7,106.8,46.5
2937.5,104.3,59.3,149.5,104.4,45.1
2940.0,107.9,57.8,140.3,102.0,41.5
2942.5,107.9,59.2,134.1,100.4,38.0
2945.0,105.2,57.7,128.3,97.1,36.0
2947.5,106.4,56.5,120.1,94.3,33.5
2950.0,107.2,55.5,113.7,92.1,31.9
2952.5,109.2,54.3,109.3,90.9,31.7
2955.0,107.6,54.1,102.0,87.9,29.4
2957.5,108.5,53.8,98.4,86.9,29.1
2960.0,109.8,52.6,94.6,85.7,29.6
2962.5,110.3,52.5,91.5,84.8,29.5
2965.0,111.5,51.4,90.0,84.3,30.4
2967.5,112.7,50.6,87.2,83.5,31.2
2970.0,112.6,50.5,84.7,82.6,31.1
2972.5,112.2,49.7,81.6,81.2,31.3
2975.0,114.5,49.1,79.5,81.1,32.7
2977.5,111.0,48.1,77.0,78.7,31.5
2980.0,115.0,47.7,76.0,79.6,33.8
2982.5,113.6,48.0,72.4,78.0,33.2
2985.0,112.4,47.5,70.6,76.8,32.9
2987.5,115.4,47.1,69.1,77.2,34.9
2990.0,115.8,47.4,65.8,76.3,35.4
2992.5,115.3,47.7,65.2,76.1,35.1
2995.0,115.3,47.3,63.0,75.2,35.6
2997.5,116.7,47.2,60.6,74.8,36.9
3000.0,120.1,47.1,58.8,75.4,39.2
3002.5,118.3,47.3,58.9,74.9,38.1
3005.0,116.9,46.7,57.3,73.6,37.8
3007.5,118.0,47.6,55.5,73.7,38.6
3010.0,120.3,48.5,53.2,74.0,40.1
3012.5,121.5,48.5,51.8,73.9,41.2
3015.0,120.9,50.0,49.9,73.6,40.9
3017.5,121.7,50.0,49.5,73.7,41.5
3020.0,121.7,50.1,48.2,73.3,41.9
3022.5,121.1,50.2,47.2,72.8,41.8
3025.0,121.9,49.8,47.2,72.9,42.4
3027.5,121.9,48.7,45.1,71.9,43.3
3030.0,122.7,48.3,45.0,72.0,43.9
3032.5,123.9,47.5,43.5,71.7,45.3
3035.0,125.2,46.0,43.2,71.5,46.5
3037.5,127.5,45.6,42.7,71.9,48.1
3040.0,126.1,44.1,42.1,70.8,47.9
3042.5,128.5,43.1,41.8,71.2,49.7
3045.0,129.5,42.4,40.4,70.8,50.8
3047.5,127.9,42.7,40.0,70.2,50.0
3050.0,128.6,42.9,40.0,70.5,50.3
3052.5,128.9,42.7,39.2,70.3,50.9
3055.0,130.0,44.1,37.8,70.7,51.5
3057.5,128.4,44.3,37.0,69.9,50.8
3060.0,127.2,43.5,36.0,68.9,50.6
3062.5,127.8,44.3,35.0,69.0,51.1
3065.0,129.9,43.3,35.2,69.5,52.5
3067.5,129.9,43.7,35.5,69.7,52.3
3070.0,128.2,43.3,35.4,69.0,51.5
3072.5,129.9,42.4,35.0,69.1,52.8
3075.0,129.4,42.0,35.8,69.0,52.4
3077.5,132.4,41.9,35.8,70.1,54.1
3080.0,130.4,42.1,36.0,69.5,52.8
3082.5,132.2,42.5,36.0,70.2,53.7
3085.0,131.4,42.4,34.8,69.6,53.7
3087.5,131.1,41.8,34.2,69.0,53.9
3090.0,129.4,41.5,33.4,68.1,53.2
3092.5,131.3,41.0,33.4,68.6,54.5
3095.0,132.0,40.6,34.3,68.9,54.7
3097.5,134.6,39.2,34.3,69.3,56.5
3100.0,131.9,40.5,34.2,68.9,54.7
3102.5,133.7,40.9,34.2,69.6,55.6
3105.0,136.9,41.0,33.4,70.4,57.7
3107.5,137.3,40.3,33.5,70.4,58.1
3110.0,137.3,39.1,33.2,69.9,58.4
3112.5,139.2,39.9,33.0,70.7,59.4
3115.0,137.7,40.0,32.4,70.0,58.7
3117.5,138.7,40.3,32.4,70.5,59.2
3120.0,139.2,40.6,32.6,70.8,59.4
3122.5,139.7,40.3,32.0,70.7,59.9
3125.0,137.1,39.9,32.7,69.9,58.3
3127.5,139.5,40.2,32.5,70.8,59.7
3130.0,139.7,39.6,32.3,70.6,60.0
3132.5,139.2,38.6,32.8,70.2,59.9
3135.0,137.7,38.2,32.1,69.3,59.3
3137.5,142.4,37.6,32.8,71.0,61.9
3140.0,140.8,37.8,33.7,70.8,60.7
3142.5,142.2,38.3,33.9,71.5,61.3
3145.0,144.0,38.0,34.2,72.1,62.3
3147.5,143.0,37.9,33.6,71.5,62.0
3150.0,140.1,37.3,33.0,70.1,60.6
3152.5,142.8,37.7,32.3,70.9,62.3
3155.0,142.9,38.3,32.3,71.1,62.2
3157.5,144.8,38.1,31.9,71.6,63.5
3160.0,145.0,38.5,32.1,71.8,63.4
3162.5,144.8,38.0,31.5,71.4,63.6
3165.0,144.5,37.5,31.4,71.1,63.6
3167.5,144.4,37.3,31.0,70.9,63.8
3170.0,144.9,36.7,30.9,70.8,64.2
3172.5,146.4,35.7,31.4,71.2,65.2
3175.0,146.0,35.1,30.9,70.7,65.3
3177.5,148.7,35.4,30.7,71.6,66.8
3180.0,149.9,35.4,30.8,72.0,67.5
3182.5,147.6,35.2,30.4,71.1,66.4
3185.0,153.8,35.0,30.0,72.9,70.1
3187.5,154.0,35.2,30.3,73.2,70.0
3190.0,153.9,34.9,30.7,73.2,70.0
3192.5,154.0,35.6,31.7,73.8,69.5
3195.0,156.4,36.0,31.2,74.6,70.9
3197.5,156.9,35.6,30.3,74.3,71.6
3200.0,158.6,36.2,30.4,75.0,72.4
3202.5,159.9,35.6,30.1,75.2,73.4
3205.0,159.3,36.3,30.8,75.5,72.7
3207.5,160.7,36.1,30.4,75.7,73.6
3210.0,160.3,36.1,30.6,75.6,73.3
3212.5,159.3,35.6,30.8,75.2,72.9
3215.0,160.9,35.6,31.0,75.8,73.7
3217.5,161.6,35.6,30.6,76.0,74.2
3220.0,161.2,36.3,30.3,75.9,73.9
3222.5,162.0,35.0,30.7,75.9,74.6
3225.0,162.9,34.6,30.4,76.0,75.3
3227.5,162.5,35.5,30.8,76.2,74.7
3230.0,164.7,35.3,30.8,76.9,76.0
3232.5,159.2,35.8,29.9,75.0,73.0
3235.0,160.8,35.7,29.6,75.3,74.1
3237.5,156.6,35.4,30.5,74.2,71.4
3240.0,155.7,34.9,29.7,73.4,71.3
3242.5,152.1,35.0,29.4,72.2,69.3
3245.0,152.9,35.2,29.8,72.6,69.6
3247.5,145.6,35.1,30.1,70.3,65.3
3250.0,143.3,34.0,30.3,69.2,64.2
3252.5,138.3,33.1,30.2,67.2,61.6
3255.0,134.1,32.4,30.0,65.5,59.4
3257.5,128.3,32.2,29.0,63.2,56.4
3260.0,124.1,31.9,29.2,61.7,54.0
3262.5,118.6,32.9,28.8,60.1,50.7
3265.0,112.4,33.4,28.2,58.0,47.2
3267.5,106.5,33.8,28.2,56.1,43.7
3270.0,104.7,33.6,27.9,55.4,42.8
3272.5,102.7,33.5,28.3,54.8,41.6
3275.0,96.0,33.7,28.9,52.8,37.4
3277.5,92.5,33.6,28.9,51.6,35.5
3280.0,90.3,34.1,28.9,51.1,34.0
3282.5,87.7,34.4,29.1,50.4,32.4
3285.0,86.4,34.6,28.7,49.9,31.7
3287.5,84.4,34.2,29.9,49.5,30.3
3290.0,81.8,34.4,29.8,48.7,28.8
3292.5,80.1,34.9,28.9,48.0,28.0
3295.0,80.0,34.8,29.6,48.1,27.7
3297.5,78.1,34.3,29.8,47.4,26.7
3300.0,76.7,34.4,30.3,47.1,25.7
3302.5,76.1,34.4,30.6,47.1,25.2
3305.0,72.8,33.9,29.7,45.4,23.8
3307.5,71.9,34.0,30.3,45.4,23.0
3310.0,70.6,32.8,29.3,44.2,22.9
3312.5,69.3,32.6,30.0,43.9,22.0
3315.0,68.3,32.8,30.0,43.7,21.4
3317.5,67.6,31.9,31.0,43.5,20.9
3320.0,67.4,31.7,30.1,43.1,21.1
3322.5,65.9,32.0,29.4,42.4,20.3
3325.0,64.2,32.9,29.2,42.1,19.2
3327.5,63.0,33.3,28.8,41.7,18.6
3330.0,62.3,33.6,28.9,41.6,18.1
3332.5,63.0,33.5,29.0,41.8,18.5
3335.0,61.9,33.5,28.4,41.3,18.0
3337.5,60.0,33.6,29.1,40.9,16.7
3340.0,58.1,32.7,28.7,39.8,16.0
3342.5,58.1,33.1,28.2,39.8,16.1
3345.0,56.9,32.6,27.6,39.0,15.6
3347.5,56.8,33.3,28.1,39.4,15.3
3350.0,57.1,32.9,28.3,39.4,15.5
3352.5,56.9,33.2,29.0,39.7,15.1
3355.0,56.1,32.9,29.1,39.3,14.6
3357.5,54.9,32.3,28.6,38.6,14.2
3360.0,55.4,31.9,28.9,38.7,14.5
3362.5,55.6,31.8,28.2,38.5,14.9
3365.0,54.7,31.0,28.2,38.0,14.6
3367.5,54.0,31.2,28.6,37.9,13.9
3370.0,53.0,31.3,29.4,37.9,13.1
3372.5,52.4,31.3,29.6,37.8,12.7
3375.0,52.4,31.3,29.2,37.6,12.9
3377.5,51.9,31.1,29.7,37.6,12.4
3380.0,51.3,31.4,29.4,37.4,12.1
3382.5,51.0,31.4,28.9,37.1,12.1
3385.0,50.7,31.7,28.8,37.1,11.9
3387.5,50.6,31.8,28.3,36.9,12.0
3390.0,50.5,32.1,28.5,37.0,11.8
3392.5,49.9,32.4,28.7,37.0,11.3
3395.0,49.3,32.5,29.0,37.0,10.8
3397.5,48.8,32.6,29.5,37.0,10.4
3400.0,49.5,32.0,29.3,36.9,10.9
3402.5,50.6,31.2,29.1,36.9,11.8
3405.0,50.1,31.7,28.5,36.7,11.6
3407.5,49.5,31.8,28.7,36.7,11.2
3410.0,49.8,32.2,29.1,37.0,11.2
3412.5,51.0,32.5,29.4,37.6,11.7
3415.0,51.0,32.1,29.9,37.7,11.6
3417.5,50.3,32.0,29.1,37.1,11.5
3420.0,50.7,31.8,28.5,37.0,12.0
3422.5,50.6,31.6,28.5,36.9,11.9
3425.0,49.5,32.3,28.3,36.7,11.3
3427.5,49.9,32.8,27.9,36.9,11.6
3430.0,50.0,33.0,27.4,36.8,11.8
3432.5,48.7,33.5,27.9,36.7,10.7
3435.0,47.7,33.7,27.9,36.4,10.2
3437.5,48.2,34.7,28.6,37.2,10.0
3440.0,48.0,34.4,28.1,36.8,10.2
3442.5,47.3,34.4,27.6,36.4,10.0
3445.0,47.8,34.7,27.0,36.5,10.6
3447.5,47.2,33.6,27.0,35.9,10.3
3450.0,48.1,33.3,27.0,36.1,10.9
3452.5,47.7,32.3,26.2,35.4,11.1
3455.0,47.1,31.7,26.3,35.1,10.8
3457.5,47.7,32.3,26.1,35.4,11.1
3460.0,47.3,31.8,25.9,35.0,11.0
3462.5,47.2,31.5,25.7,34.8,11.1
3465.0,47.2,31.3,26.1,34.9,11.0
3467.5,46.2,30.8,26.3,34.5,10.4
3470.0,46.4,30.3,26.9,34.5,10.4
3472.5,45.7,30.4,26.7,34.3,10.1
3475.0,46.4,30.5,26.3,34.4,10.6
3477.5,46.6,30.3,25.8,34.3,11.0
3480.0,46.4,30.7,25.6,34.2,10.9
3482.5,46.4,30.5,26.3,34.4,10.6
3485.0,46.6,30.3,26.3,34.4,10.8
3487.5,46.0,30.7,25.9,34.2,10.5
3490.0,46.6,32.3,26.1,35.0,10.5
3492.5,46.2,33.3,26.2,35.2,10.1
3495.0,46.1,34.3,26.1,35.5,10.1
3497.5,45.4,34.1,26.3,35.3,9.6
3500.0,44.8,33.3,26.4,34.8,9.3
3502.5,45.3,33.1,26.2,34.9,9.6
3505.0,46.0,32.6,26.2,34.9,10.1
3507.5,46.4,33.6,26.9,35.6,9.9
3510.0,46.9,33.3,27.5,35.9,10.0
3512.5,45.9,33.8,27.9,35.8,9.2
3515.0,46.0,34.0,28.2,36.1,9.0
3517.5,47.0,33.0,27.9,36.0,9.9
3520.0,46.4,32.7,27.6,35.6,9.7
3522.5,46.7,32.5,27.3,35.5,10.0
3525.0,46.8,32.9,27.5,35.7,10.0
3527.5,46.5,32.2,26.9,35.2,10.2
3530.0,46.9,32.3,26.6,35.3,10.4
3532.5,46.3,31.8,26.7,34.9,10.2
3535.0,45.9,31.0,25.9,34.2,10.4
3537.5,46.1,30.3,25.5,34.0,10.8
3540.0,45.8,30.3,24.8,33.7,10.9
3542.5,46.2,29.2,24.5,33.3,11.4
3545.0,46.9,29.9,24.9,33.9,11.5
3547.5,46.0,29.3,25.6,33.6,10.8
3550.0,45.8,29.3,26.6,33.9,10.4
3552.5,45.1,29.5,26.0,33.6,10.2
3555.0,45.9,28.8,26.3,33.7,10.6
3557.5,45.7,29.0,26.2,33.6,10.6
3560.0,46.6,29.2,25.8,33.9,11.1
3562.5,45.1,29.4,25.8,33.4,10.3
3565.0,46.1,29.5,25.5,33.7,10.9
3567.5,45.3,29.8,25.7,33.6,10.4
3570.0,45.6,29.0,26.3,33.6,10.4
3572.5,43.2,29.1,25.9,32.7,9.2
3575.0,42.1,28.8,25.5,32.1,8.8
3577.5,41.5,29.2,26.1,32.3,8.2
3579.75,41.7,29.3,27.0,32.7,7.9