File: 01_Data/Plastic_Laminate_Countertop/Cone/Plastic_Laminate_Countertop_HRRPUA_75.csv
Time after Ignition,Plastic_Laminate_Countertop_R1,Plastic_Laminate_Countertop_R2,Plastic_Laminate_Countertop_R3,Mean,Std. Dev.
0.0,55.2,21.3,10.3,28.9,23.4
2.25,90.2,36.4,30.9,52.5,32.8
4.5,96.0,44.6,42.0,60.9,30.4
6.75,72.3,49.8,50.1,57.4,12.9
9.0,54.7,87.0,104.6,82.1,25.3
11.25,72.5,146.7,194.3,137.8,61.4
13.5,133.3,190.5,238.5,187.4,52.7
15.75,172.1,225.2,240.8,212.7,36.0
18.0,185.2,239.2,216.0,213.4,27.1
20.25,189.6,242.9,195.8,209.4,29.1
22.5,201.2,227.5,188.3,205.7,20.0
24.75,209.9,211.9,198.4,206.7,7.3
27.0,212.1,201.7,203.4,205.7,5.6
29.25,210.8,189.2,203.1,201.0,11.0
31.5,191.5,180.1,196.3,189.3,8.3
33.75,165.5,167.7,181.3,171.5,8.6
36.0,151.7,154.4,169.2,158.4,9.5
38.25,138.4,140.4,158.2,145.7,10.9
40.5,124.5,125.5,146.0,132.0,12.1
42.75,113.3,119.5,137.5,123.4,12.6
45.0,104.4,116.3,128.0,116.3,11.8
47.25,95.9,109.1,118.3,107.7,11.3
49.5,93.7,104.8,111.3,103.3,8.9
51.75,86.8,100.9,104.9,97.5,9.5
54.0,85.6,99.3,98.7,94.5,7.8
56.25,86.6,99.7,94.3,93.5,6.6
58.5,87.1,98.9,92.1,92.7,5.9
60.75,87.4,98.1,87.6,91.0,6.1
63.0,89.4,100.3,87.4,92.4,6.9
65.25,91.0,102.1,87.4,93.5,7.7
67.5,95.6,103.8,88.8,96.1,7.5
69.75,97.3,106.6,88.6,97.5,9.0
72.0,101.1,112.0,90.9,101.4,10.6
74.25,107.3,112.6,92.6,104.2,10.4
76.5,110.9,116.9,95.5,107.8,11.0
78.75,115.4,118.5,99.3,111.1,10.3
81.0,120.0,126.7,103.8,116.8,11.8
83.25,123.1,131.1,107.4,120.5,12.0
85.5,127.0,136.0,111.8,124.9,12.2
87.75,131.7,139.3,116.3,129.1,11.7
90.0,133.8,143.7,117.9,131.8,13.0
92.25,138.7,153.3,120.1,137.4,16.6
94.5,143.9,157.9,125.2,142.3,16.4
96.75,141.9,162.0,130.5,144.8,15.9
99.0,142.9,166.8,138.3,149.4,15.3
101.25,147.5,168.7,142.1,152.7,14.1
103.5,151.3,172.9,146.7,156.9,14.0
105.75,156.2,174.5,151.4,160.7,12.1
108.0,160.0,178.1,156.9,165.0,11.4
110.25,161.2,184.1,162.5,169.2,12.9
112.5,161.8,190.4,165.3,172.5,15.6
114.75,162.0,192.2,165.6,173.3,16.5
117.0,170.9,192.4,169.5,177.6,12.8
119.25,169.7,193.7,173.3,178.9,13.0
121.5,171.2,197.1,178.7,182.3,13.3
123.75,177.3,192.3,184.1,184.6,7.5
126.0,171.7,193.4,182.3,182.5,10.9
128.25,176.4,192.4,190.2,186.3,8.6
130.5,180.5,193.4,185.8,186.6,6.5
132.75,178.8,194.1,191.3,188.1,8.2
135.0,182.0,191.9,192.2,188.7,5.8
137.25,178.4,192.1,191.7,187.4,7.8
139.5,176.2,190.9,195.0,187.4,9.9
141.75,180.3,193.0,193.2,188.8,7.4
144.0,179.0,190.9,191.9,187.3,7.2
146.25,177.5,194.5,192.5,188.2,9.3
148.5,177.1,190.8,193.6,187.2,8.9
150.75,178.6,190.9,190.9,186.8,7.1
153.0,179.5,189.2,190.4,186.4,6.0
155.25,175.5,189.7,192.4,185.9,9.1
157.5,177.6,185.6,190.5,184.6,6.5
159.75,178.4,185.6,189.6,184.6,5.7
162.0,176.6,184.1,188.6,183.1,6.1
164.25,175.9,180.0,183.6,179.8,3.9
166.5,176.6,181.4,184.7,180.9,4.1
168.75,172.4,176.9,183.7,177.7,5.7
171.0,172.4,175.4,186.4,178.1,7.4
173.25,172.9,172.3,184.9,176.7,7.1
175.5,170.1,172.5,178.0,173.5,4.1
177.75,168.5,166.0,182.5,172.3,8.9
180.0,169.2,167.2,179.1,171.8,6.4
182.25,168.7,169.0,181.0,172.9,7.0
184.5,165.1,161.0,176.0,167.4,7.7
186.75,160.0,163.1,173.6,165.6,7.1
189.0,162.2,159.6,169.1,163.6,4.9
191.25,163.8,160.0,170.4,164.7,5.3
193.5,163.1,156.5,170.7,163.4,7.1
195.75,161.9,159.0,167.6,162.8,4.4
198.0,158.2,157.4,167.5,161.1,5.6
200.25,154.9,154.5,165.7,158.4,6.4
202.5,157.6,151.0,163.6,157.4,6.3
204.75,152.4,153.6,163.4,156.4,6.0
207.0,152.6,154.4,162.8,156.6,5.5
209.25,152.1,153.2,161.8,155.7,5.3
211.5,153.6,152.1,159.0,154.9,3.6
213.75,152.3,149.9,158.0,153.4,4.2
216.0,152.9,148.4,160.0,153.8,5.8
218.25,154.2,151.3,155.7,153.7,2.2
220.5,152.2,151.4,157.3,153.7,3.2
222.75,148.1,149.4,157.8,151.8,5.3
225.0,150.7,145.2,153.2,149.7,4.1
227.25,148.4,148.3,153.5,150.1,3.0
229.5,147.1,147.9,151.1,148.7,2.1
231.75,146.1,146.3,150.5,147.6,2.5
234.0,147.6,147.5,152.4,149.2,2.8
236.25,146.3,147.4,152.0,148.6,3.0
238.5,145.3,146.2,149.4,146.9,2.2
240.75,146.5,143.0,151.2,146.9,4.1
243.0,142.5,143.9,149.0,145.1,3.4
245.25,143.8,143.8,149.2,145.6,3.1
247.5,146.7,146.1,147.6,146.8,0.7
249.75,145.6,144.1,145.5,145.0,0.9
252.0,146.3,142.8,150.0,146.3,3.6
254.25,146.2,143.1,151.8,147.0,4.5
256.5,146.1,141.8,151.5,146.5,4.9
258.75,146.3,143.3,149.1,146.2,2.9
261.0,144.3,144.1,147.7,145.4,2.0
263.25,146.3,142.0,148.3,145.5,3.2
265.5,143.5,143.1,146.2,144.3,1.7
267.75,143.8,143.9,146.6,144.7,1.6
270.0,145.5,142.8,145.3,144.5,1.5
272.25,140.9,141.7,150.0,144.2,5.0
274.5,142.0,147.0,145.5,144.8,2.6
276.75,141.4,141.8,145.5,142.9,2.3
279.0,141.1,142.6,144.0,142.6,1.5
281.25,141.8,143.3,142.4,142.5,0.7
283.5,141.8,141.3,140.9,141.3,0.4
285.75,140.2,142.2,141.8,141.4,1.1
288.0,138.9,141.0,143.7,141.2,2.4
290.25,138.4,136.1,141.4,138.6,2.7
292.5,139.2,142.8,143.7,141.9,2.4
294.75,140.3,139.6,139.6,139.9,0.4
297.0,138.7,140.2,142.4,140.4,1.8
299.25,140.8,140.8,140.6,140.7,0.1
301.5,137.5,141.5,142.0,140.3,2.4
303.75,138.4,138.7,140.8,139.3,1.3
306.0,135.6,140.2,142.4,139.4,3.4
308.25,135.8,135.9,140.3,137.3,2.5
310.5,136.4,139.9,139.8,138.7,2.0
312.75,135.4,138.0,141.3,138.2,2.9
315.0,136.7,139.0,136.2,137.3,1.5
317.25,135.9,136.5,141.1,137.8,2.9
319.5,137.1,138.2,140.4,138.6,1.7
321.75,133.9,138.1,138.8,137.0,2.7
324.0,133.6,138.3,139.1,137.0,3.0
326.25,133.2,136.4,138.4,136.0,2.6
328.5,132.6,136.9,138.0,135.8,2.9
330.75,133.8,135.5,134.3,134.5,0.9
333.0,133.5,135.5,136.5,135.2,1.5
335.25,131.6,134.8,136.6,134.4,2.6
337.5,132.7,133.6,136.7,134.3,2.1
339.75,132.4,134.7,134.9,134.0,1.4
342.0,130.4,133.0,136.4,133.3,3.1
344.25,132.0,131.6,135.4,133.0,2.1
346.5,132.3,133.9,134.7,133.6,1.2
348.75,132.7,131.9,134.8,133.1,1.5
351.0,131.6,133.8,133.2,132.9,1.1
353.25,128.7,130.4,134.2,131.1,2.8
355.5,131.1,128.6,131.6,130.4,1.6
357.75,128.7,131.3,133.5,131.1,2.4
360.0,125.9,130.3,133.3,129.8,3.8
362.25,126.3,129.0,135.3,130.2,4.6
364.5,127.8,128.8,131.5,129.4,1.9
366.75,125.8,126.4,132.1,128.1,3.5
369.0,125.5,126.9,130.6,127.7,2.6
371.25,124.5,127.3,132.2,128.0,3.9
373.5,122.9,125.2,130.7,126.3,4.0
375.75,124.8,125.9,129.3,126.6,2.3
378.0,123.7,126.6,128.5,126.3,2.4
380.25,124.0,125.2,131.1,126.8,3.8
382.5,124.8,125.4,128.0,126.1,1.7
384.75,123.0,122.9,130.0,125.3,4.1
387.0,122.4,122.5,128.3,124.4,3.4
389.25,121.3,124.1,127.8,124.4,3.3
391.5,119.9,123.3,128.9,124.0,4.6
393.75,120.5,121.6,127.6,123.3,3.8
396.0,118.4,119.5,127.9,121.9,5.2
398.25,118.8,121.2,127.7,122.6,4.6
400.5,120.4,120.9,124.1,121.8,2.0
402.75,118.0,120.8,123.4,120.7,2.7
405.0,118.6,118.7,121.9,119.7,1.9
407.25,117.7,118.7,124.4,120.2,3.6
409.5,116.3,117.6,124.4,119.5,4.4
411.75,117.7,117.4,122.8,119.3,3.1
414.0,114.5,119.5,123.5,119.2,4.5
416.25,114.4,118.0,123.1,118.5,4.4
418.5,115.1,115.7,119.7,116.8,2.5
420.75,113.5,117.7,118.5,116.6,2.7
423.0,113.4,117.3,117.0,115.9,2.2
425.25,114.3,114.3,117.6,115.4,1.9
427.5,111.0,113.7,118.3,114.3,3.6
429.75,111.8,112.8,117.3,113.9,2.9
432.0,111.4,112.4,119.7,114.5,4.5
434.25,113.2,111.0,119.3,114.5,4.3
436.5,111.9,110.9,119.2,114.0,4.5
438.75,112.1,111.2,118.2,113.8,3.8
441.0,111.5,109.7,117.1,112.8,3.9
443.25,109.6,108.5,116.7,111.6,4.5
445.5,112.1,109.4,118.0,113.2,4.4
447.75,108.6,109.8,119.0,112.5,5.7
450.0,107.0,109.1,117.3,111.1,5.4
452.25,107.9,108.8,116.9,111.2,5.0
454.5,106.6,107.0,116.7,110.1,5.7
456.75,108.6,106.8,115.8,110.4,4.7
459.0,106.1,106.7,116.3,109.7,5.7
461.25,105.7,106.0,114.1,108.6,4.8
463.5,105.0,105.4,113.3,107.9,4.7
465.75,104.0,106.8,113.9,108.2,5.1
468.0,105.3,107.0,113.5,108.6,4.3
470.25,104.5,106.7,113.7,108.3,4.8
472.5,102.1,104.9,114.0,107.0,6.2
474.75,102.8,104.0,114.7,107.2,6.5
477.0,102.5,103.6,111.9,106.0,5.1
479.25,101.6,104.8,109.5,105.3,4.0
481.5,101.6,103.8,110.5,105.3,4.7
483.75,101.3,103.4,110.9,105.2,5.0
486.0,99.8,104.2,107.5,103.8,3.9
488.25,99.8,102.9,108.0,103.6,4.1
490.5,99.9,102.4,107.7,103.3,4.0
492.75,99.5,102.5,109.5,103.8,5.2
495.0,99.7,101.9,107.3,103.0,3.9
497.25,98.9,102.1,107.9,103.0,4.5
499.5,99.3,102.8,107.7,103.3,4.2
501.75,98.2,100.1,107.8,102.0,5.1
504.0,99.4,100.6,104.8,101.6,2.8
506.25,98.7,102.2,105.0,101.9,3.2
508.5,98.5,100.7,103.4,100.9,2.5
510.75,97.0,100.4,102.8,100.1,3.0
513.0,97.4,100.2,102.5,100.1,2.6
515.25,95.6,99.5,101.8,99.0,3.1
517.5,97.0,100.2,103.2,100.1,3.1
519.75,94.8,100.7,100.8,98.7,3.5
522.0,93.2,100.3,101.8,98.4,4.6
524.25,93.9,99.5,103.9,99.1,5.0
526.5,93.4,101.2,101.6,98.7,4.6
528.75,93.3,99.8,99.6,97.6,3.7
531.0,92.0,99.2,98.9,96.7,4.1
533.25,92.7,99.9,99.3,97.3,4.0
535.5,92.5,101.3,98.2,97.3,4.5
537.75,92.0,100.0,98.7,96.9,4.3
540.0,92.5,97.9,98.3,96.2,3.2
542.25,93.3,98.7,97.4,96.4,2.8
544.5,92.6,98.5,97.9,96.3,3.3
546.75,93.1,99.0,96.6,96.3,3.0
549.0,89.8,98.4,97.3,95.2,4.7
551.25,91.3,99.1,97.0,95.8,4.0
553.5,90.5,97.3,96.3,94.7,3.7
555.75,90.4,97.7,98.3,95.5,4.4
558.0,90.3,97.9,96.4,94.8,4.0
560.25,91.3,98.5,95.2,95.0,3.6
562.5,91.5,96.3,96.0,94.6,2.7
564.75,91.2,96.9,95.0,94.4,2.9
567.0,93.0,96.7,97.4,95.7,2.3
569.25,90.9,96.7,97.5,95.0,3.6
571.5,91.5,96.7,96.6,94.9,2.9
573.75,91.3,94.8,94.3,93.5,1.9
576.0,90.4,95.7,93.9,93.3,2.7
578.25,91.1,94.6,95.4,93.7,2.3
580.5,90.9,97.1,96.8,94.9,3.5
582.75,92.6,93.4,95.1,93.7,1.3
585.0,89.9,96.0,95.5,93.8,3.4
587.25,88.9,96.1,93.0,92.7,3.6
589.5,90.0,94.6,94.0,92.9,2.5
591.75,89.1,96.5,93.7,93.1,3.7
594.0,89.4,95.7,95.2,93.4,3.5
596.25,88.3,95.0,93.1,92.1,3.5
598.5,87.6,94.2,92.1,91.3,3.4
600.75,89.0,93.7,92.0,91.6,2.4
603.0,89.4,94.5,92.9,92.3,2.6
605.25,89.8,94.1,92.2,92.0,2.1
607.5,89.8,94.8,94.2,92.9,2.7
609.75,90.0,94.6,92.1,92.2,2.3
612.0,89.3,93.4,91.0,91.2,2.0
614.25,88.5,93.4,90.2,90.7,2.5
616.5,89.1,94.1,90.2,91.1,2.7
618.75,88.1,92.8,91.5,90.8,2.4
621.0,88.9,93.1,89.5,90.5,2.3
623.25,89.2,92.6,89.5,90.4,1.9
625.5,90.9,93.8,91.2,92.0,1.6
627.75,89.4,93.1,90.4,91.0,1.9
630.0,89.3,92.7,91.9,91.3,1.8
632.25,89.0,92.7,89.2,90.3,2.1
634.5,89.9,91.4,91.2,90.9,0.8
636.75,90.4,92.7,90.5,91.2,1.3
639.0,89.9,91.6,91.6,91.1,1.0
641.25,90.5,90.4,92.3,91.1,1.0
643.5,90.0,91.9,91.4,91.1,1.0
645.75,89.3,91.1,90.6,90.3,0.9
648.0,90.5,92.2,87.7,90.2,2.3
650.25,88.5,92.1,87.9,89.5,2.3
652.5,89.3,91.5,88.6,89.8,1.5
654.75,88.6,92.6,87.0,89.4,2.9
657.0,87.9,90.7,87.9,88.9,1.6
659.25,88.4,90.6,86.9,88.6,1.8
661.5,88.3,92.6,86.1,89.0,3.3
663.75,89.6,92.5,88.9,90.3,1.9
666.0,90.1,93.0,86.5,89.9,3.2
668.25,88.0,92.0,87.4,89.1,2.5
670.5,87.3,93.0,88.3,89.5,3.1
672.75,88.9,91.3,87.7,89.3,1.8
675.0,89.1,92.1,87.3,89.5,2.4
677.25,87.8,92.9,89.3,90.0,2.6
679.5,87.7,91.0,89.0,89.2,1.7
681.75,87.1,90.2,87.4,88.2,1.7
684.0,86.6,91.3,87.6,88.5,2.5
686.25,86.8,89.9,88.3,88.3,1.6
688.5,86.9,90.8,87.8,88.5,2.0
690.75,85.8,91.4,86.0,87.8,3.2
693.0,84.4,90.1,88.2,87.6,2.9
695.25,85.5,90.6,86.8,87.6,2.6
697.5,87.9,89.6,90.3,89.3,1.3
699.75,86.3,90.5,86.7,87.8,2.3
702.0,88.2,91.2,88.0,89.1,1.8
704.25,86.5,91.2,87.5,88.4,2.5
706.5,86.5,91.4,87.5,88.5,2.6
708.75,86.8,90.7,85.8,87.8,2.6
711.0,87.4,90.7,86.2,88.1,2.4
713.25,85.7,90.3,86.8,87.6,2.4
715.5,86.9,88.7,87.1,87.5,1.0
717.75,85.7,89.4,87.6,87.6,1.9
720.0,86.7,89.7,88.1,88.2,1.5
722.25,85.9,89.4,90.3,88.5,2.3
724.5,86.7,90.4,88.6,88.6,1.8
726.75,85.7,90.2,89.1,88.3,2.3
729.0,87.8,91.1,88.3,89.0,1.8
731.25,87.5,92.2,87.7,89.1,2.7
733.5,87.6,91.7,88.4,89.2,2.2
735.75,86.4,92.9,87.5,88.9,3.5
738.0,85.7,92.1,88.0,88.6,3.2
740.25,86.0,92.6,87.0,88.6,3.5
742.5,84.4,91.9,86.6,87.6,3.8
744.75,85.6,91.8,87.0,88.2,3.2
747.0,84.9,90.2,87.7,87.6,2.7
749.25,85.3,89.8,88.0,87.7,2.3
751.5,83.6,91.3,87.7,87.5,3.8
753.75,83.6,90.1,86.2,86.6,3.3
756.0,83.7,91.3,86.8,87.3,3.8
758.25,84.1,90.5,86.3,87.0,3.2
760.5,83.5,90.1,87.7,87.1,3.3
762.75,83.8,90.2,86.3,86.8,3.2
765.0,84.7,90.7,88.1,87.8,3.0
767.25,85.0,89.3,87.6,87.3,2.2
769.5,85.8,89.7,87.6,87.7,2.0
771.75,85.3,90.1,85.5,87.0,2.8
774.0,85.6,90.1,86.1,87.3,2.4
776.25,85.4,91.3,86.0,87.5,3.2
778.5,84.9,91.2,85.6,87.2,3.5
780.75,85.9,93.2,86.7,88.6,4.0
783.0,85.8,91.4,86.0,87.7,3.2
785.25,85.7,91.3,86.9,88.0,2.9
787.5,86.0,92.9,86.7,88.5,3.8
789.75,84.7,92.2,86.6,87.8,3.9
792.0,85.4,93.1,86.2,88.3,4.2
794.25,84.5,92.0,86.2,87.6,3.9
796.5,83.7,92.3,87.6,87.8,4.3
798.75,85.6,94.4,87.2,89.1,4.7
801.0,83.8,91.8,86.1,87.2,4.1
803.25,84.2,92.8,87.0,88.0,4.4
805.5,83.8,94.1,88.3,88.7,5.1
807.75,82.5,92.3,85.2,86.7,5.0
810.0,83.4,93.5,86.7,87.9,5.2
812.25,84.8,94.1,87.1,88.7,4.8
814.5,85.0,93.6,87.8,88.8,4.4
816.75,84.4,94.1,86.2,88.2,5.2
819.0,83.9,94.7,86.8,88.4,5.6
821.25,84.4,94.1,87.2,88.6,5.0
823.5,84.3,94.6,86.0,88.3,5.5
825.75,84.7,95.7,86.6,89.0,5.9
828.0,84.1,95.7,85.5,88.4,6.3
830.25,83.6,93.8,85.1,87.5,5.5
832.5,83.2,92.9,86.5,87.5,4.9
834.75,83.1,94.8,85.7,87.9,6.2
837.0,84.6,93.7,84.7,87.7,5.2
839.25,86.1,92.0,86.8,88.3,3.2
841.5,83.8,93.8,86.9,88.2,5.1
843.75,83.8,93.8,87.1,88.2,5.1
846.0,84.8,93.6,85.7,88.0,4.8
848.25,83.5,93.7,88.0,88.4,5.1
850.5,83.8,92.1,85.9,87.3,4.3
852.75,84.4,92.9,87.1,88.1,4.3
855.0,84.8,93.3,86.8,88.3,4.5
857.25,83.8,93.8,88.4,88.6,5.0
859.5,82.8,94.1,88.0,88.3,5.6
861.75,83.6,92.2,86.9,87.5,4.3
864.0,83.5,93.3,84.4,87.1,5.4
866.25,84.1,93.4,86.5,88.0,4.8
868.5,83.0,94.0,87.3,88.1,5.6
870.75,84.0,95.1,88.5,89.2,5.6
873.0,84.8,92.5,87.7,88.3,3.9
875.25,83.9,94.5,87.4,88.6,5.4
877.5,82.1,95.3,86.4,87.9,6.7
879.75,82.0,94.3,87.7,88.0,6.2
882.0,82.8,94.1,87.7,88.2,5.7
884.25,84.1,96.3,87.4,89.3,6.3
886.5,82.7,94.2,87.8,88.2,5.7
888.75,84.5,94.0,87.4,88.6,4.9
891.0,83.6,93.9,87.3,88.3,5.2
893.25,83.4,93.3,87.3,88.0,5.0
895.5,83.6,95.0,86.9,88.5,5.9
897.75,82.5,94.6,89.1,88.7,6.1
900.0,82.4,94.7,87.4,88.2,6.2
902.25,82.0,95.3,86.5,87.9,6.8
904.5,82.1,95.9,85.7,87.9,7.2
906.75,83.2,95.5,86.8,88.5,6.4
909.0,81.5,96.7,87.6,88.6,7.6
911.25,82.7,95.4,86.7,88.3,6.5
913.5,83.9,97.9,87.1,89.7,7.4
915.75,83.4,96.7,87.7,89.3,6.8
918.0,84.0,95.7,86.8,88.8,6.1
920.25,82.6,97.2,86.7,88.8,7.5
922.5,83.1,97.5,85.9,88.8,7.6
924.75,84.1,96.2,84.8,88.4,6.8
927.0,83.7,94.8,86.5,88.3,5.8
929.25,83.4,97.0,87.4,89.3,7.0
931.5,83.7,96.2,87.0,89.0,6.5
933.75,84.7,95.1,87.4,89.1,5.4
936.0,81.5,96.4,88.7,88.9,7.5
938.25,82.6,97.4,86.7,88.9,7.7
940.5,83.5,97.0,87.5,89.3,7.0
942.75,82.4,96.5,85.7,88.2,7.3
945.0,82.3,95.8,85.5,87.9,7.1
947.25,82.9,95.9,85.2,88.0,6.9
949.5,83.0,97.1,86.1,88.7,7.4
951.75,82.8,97.2,85.8,88.6,7.6
954.0,83.2,95.5,86.7,88.5,6.3
956.25,83.2,95.3,86.3,88.2,6.3
958.5,83.1,95.6,86.4,88.4,6.5
960.75,81.7,96.7,88.0,88.8,7.6
963.0,80.9,95.6,88.3,88.3,7.4
965.25,81.1,95.0,88.1,88.1,7.0
967.5,83.0,96.6,89.8,89.8,6.8
969.75,83.8,97.3,86.9,89.4,7.1
972.0,83.5,97.0,86.2,88.9,7.1
974.25,83.4,96.4,86.4,88.7,6.8
976.5,82.6,95.0,86.2,87.9,6.4
978.75,82.9,98.1,87.2,89.4,7.8
981.0,82.0,97.0,86.4,88.5,7.7
983.25,82.4,98.3,86.8,89.2,8.2
985.5,83.4,98.9,87.5,89.9,8.1
987.75,83.5,97.8,87.1,89.5,7.4
990.0,82.2,97.0,85.6,88.3,7.8
992.25,81.2,97.6,87.3,88.7,8.3
994.5,82.8,96.7,86.1,88.5,7.3
996.75,82.4,96.9,87.1,88.8,7.4
999.0,81.9,98.9,86.5,89.1,8.8
1001.25,83.2,97.0,85.5,88.6,7.4
1003.5,83.2,98.6,84.8,88.8,8.4
1005.75,83.9,97.9,85.5,89.1,7.7
1008.0,80.5,98.1,86.0,88.2,9.0
1010.25,81.1,97.6,85.9,88.2,8.5
1012.5,81.8,97.2,85.7,88.3,8.0
1014.75,80.8,98.6,83.5,87.6,9.6
1017.0,81.0,97.1,86.6,88.2,8.2
1019.25,81.2,97.5,85.9,88.2,8.4
1021.5,82.6,97.3,85.8,88.6,7.7
1023.75,81.6,95.1,86.6,87.8,6.8
1026.0,81.3,95.4,85.9,87.5,7.2
1028.25,79.3,95.9,87.0,87.4,8.3
1030.5,80.5,97.6,87.1,88.4,8.6
1032.75,80.2,97.3,87.4,88.3,8.6
1035.0,80.9,97.6,87.5,88.6,8.4
1037.25,81.7,97.9,87.1,88.9,8.3
1039.5,81.7,97.3,86.0,88.3,8.1
1041.75,80.8,98.3,86.7,88.6,8.9
1044.0,81.4,99.0,85.4,88.6,9.2
1046.25,80.8,96.7,85.6,87.7,8.2
1048.5,82.5,98.1,86.4,89.0,8.2
1050.75,81.0,97.5,84.6,87.7,8.7
1053.0,80.4,95.8,86.7,87.6,7.8
1055.25,82.2,97.1,87.7,89.0,7.5
1057.5,81.0,98.1,87.9,89.0,8.6
1059.75,81.1,97.9,85.8,88.3,8.7
1062.0,80.2,99.1,86.4,88.6,9.7
1064.25,80.0,99.6,86.6,88.8,10.0
1066.5,81.3,97.6,85.6,88.2,8.4
1068.75,81.7,97.2,86.8,88.6,7.9
1071.0,80.3,98.0,86.0,88.1,9.0
1073.25,80.1,99.5,86.3,88.6,9.9
1075.5,80.9,97.3,86.0,88.1,8.4
1077.75,81.5,97.5,86.6,88.5,8.1
1080.0,81.3,97.3,87.4,88.7,8.1
1082.25,81.1,97.4,85.9,88.2,8.4
1084.5,80.7,97.7,86.2,88.2,8.7
1086.75,80.7,97.3,84.9,87.6,8.6
1089.0,81.1,97.6,85.9,88.2,8.5
1091.25,80.6,98.0,87.0,88.5,8.8
1093.5,80.0,98.1,87.8,88.6,9.1
1095.75,80.2,97.5,86.3,88.0,8.8
1098.0,80.5,97.9,86.1,88.2,8.9
1100.25,80.8,97.0,85.8,87.9,8.3
1102.5,79.7,96.9,86.2,87.6,8.7
1104.75,80.1,98.9,87.7,88.9,9.4
1107.0,79.6,97.7,87.3,88.2,9.1
1109.25,78.4,98.7,88.1,88.4,10.1
1111.5,80.2,98.4,86.0,88.2,9.3
1113.75,79.2,97.4,86.8,87.8,9.1
1116.0,81.9,98.9,84.8,88.5,9.1
1118.25,81.9,97.9,85.9,88.6,8.3
1120.5,81.6,98.4,87.3,89.1,8.5
1122.75,83.4,96.4,87.3,89.0,6.7
1125.0,82.2,97.6,85.7,88.5,8.1
1127.25,81.9,97.6,86.4,88.6,8.1
1129.5,81.1,98.4,87.7,89.1,8.7
1131.75,82.8,98.2,87.0,89.3,8.0
1134.0,81.5,97.5,87.5,88.8,8.1
1136.25,83.5,98.6,87.3,89.8,7.9
1138.5,82.0,98.7,86.1,89.0,8.7
1140.75,81.5,98.8,87.4,89.2,8.8
1143.0,81.7,100.2,89.0,90.3,9.3
1145.25,81.9,98.2,88.5,89.5,8.2
1147.5,82.3,99.9,87.1,89.8,9.1
1149.75,80.9,99.2,85.9,88.7,9.5
1152.0,81.0,102.4,85.6,89.7,11.2
1154.25,81.8,100.2,86.4,89.5,9.6
1156.5,80.5,101.6,84.5,88.9,11.2
1158.75,81.1,103.4,85.0,89.8,11.9
1161.0,81.0,101.9,85.4,89.4,11.0
1163.25,79.7,102.1,84.7,88.8,11.7
1165.5,82.5,100.5,84.7,89.2,9.8
1167.75,81.2,101.2,83.0,88.5,11.1
1170.0,80.3,100.5,85.6,88.8,10.5
1172.25,81.2,101.1,85.4,89.3,10.5
1174.5,82.3,101.7,84.7,89.5,10.6
1176.75,81.6,100.8,84.6,89.0,10.3
1179.0,80.5,101.0,86.2,89.2,10.6
1181.25,82.4,100.2,86.6,89.7,9.3
1183.5,79.7,101.5,85.3,88.8,11.3
1185.75,82.2,101.2,84.5,89.3,10.3
1188.0,82.0,101.8,84.8,89.5,10.7
1190.25,83.4,103.9,84.2,90.5,11.6
1192.5,82.6,101.8,86.9,90.4,10.1
1194.75,82.7,104.2,86.5,91.1,11.4
1197.0,81.6,103.4,86.9,90.6,11.3
1199.25,81.7,102.4,86.2,90.1,10.9
1201.5,82.1,104.1,87.1,91.1,11.5
1203.75,82.6,104.6,86.4,91.2,11.8
1206.0,83.2,104.0,85.8,91.0,11.3
1208.25,84.4,101.2,86.0,90.5,9.3
1210.5,83.5,102.2,85.9,90.5,10.2
1212.75,83.7,103.7,85.1,90.8,11.2
1215.0,84.2,101.0,85.4,90.2,9.4
1217.25,83.9,105.6,85.6,91.7,12.1
1219.5,83.4,104.5,85.3,91.1,11.6
1221.75,85.6,104.1,85.9,91.8,10.6
1224.0,84.9,102.9,85.6,91.1,10.2
1226.25,83.3,103.1,86.7,91.0,10.6
1228.5,85.1,103.8,87.1,92.0,10.3
1230.75,84.8,104.9,87.1,92.2,11.0
1233.0,81.6,104.6,86.5,90.9,12.1
1235.25,85.5,103.3,85.9,91.6,10.1
1237.5,84.1,104.4,87.0,91.8,11.0
1239.75,84.3,105.0,85.7,91.7,11.6
1242.0,83.5,102.8,86.7,91.0,10.4
1244.25,83.6,105.1,87.0,91.9,11.5
1246.5,84.5,104.5,87.3,92.1,10.9
1248.75,84.5,103.8,87.9,92.1,10.3
1251.0,85.7,105.9,86.4,92.7,11.5
1253.25,84.9,103.9,85.8,91.5,10.7
1255.5,86.6,102.8,86.7,92.0,9.3
1257.75,85.8,103.8,87.3,92.3,10.0
1260.0,88.3,102.4,86.7,92.5,8.6
1262.25,87.9,101.8,86.5,92.1,8.4
1264.5,87.4,100.3,86.5,91.4,7.7
1266.75,87.1,102.1,86.6,91.9,8.8
1269.0,87.9,100.1,87.4,91.8,7.2
1271.25,88.4,101.9,86.8,92.4,8.3
1273.5,87.9,103.7,87.5,93.0,9.2
1275.75,87.9,101.1,87.2,92.1,7.8
1278.0,87.6,99.8,87.7,91.7,7.1
1280.25,87.2,99.1,85.8,90.7,7.3
1282.5,88.6,98.2,86.8,91.2,6.1
1284.75,89.3,99.7,86.1,91.7,7.1
1287.0,90.0,101.4,87.1,92.9,7.6
1289.25,90.1,100.6,88.3,93.0,6.6
1291.5,91.0,99.4,87.5,92.6,6.1
1293.75,92.0,100.5,88.1,93.5,6.3
1296.0,91.0,99.7,90.2,93.6,5.3
1298.25,92.5,100.8,89.5,94.2,5.9
1300.5,89.8,101.3,90.6,93.9,6.4
1302.75,91.7,101.3,90.1,94.4,6.1
1305.0,91.2,101.4,90.7,94.4,6.0
1307.25,89.7,100.0,90.2,93.3,5.8
1309.5,90.9,102.6,90.3,94.6,7.0
1311.75,92.8,101.0,89.4,94.4,5.9
1314.0,92.3,102.2,93.3,95.9,5.4
1316.25,91.0,102.2,90.3,94.5,6.7
1318.5,91.3,104.8,90.2,95.4,8.1
1320.75,91.2,103.0,89.2,94.5,7.5
1323.0,91.5,103.7,89.3,94.8,7.7
1325.25,94.1,102.9,88.1,95.0,7.4
1327.5,92.5,103.1,87.9,94.5,7.8
1329.75,93.9,102.6,89.5,95.3,6.7
1332.0,93.2,104.0,88.2,95.1,8.0
1334.25,94.4,103.5,88.2,95.4,7.7
1336.5,94.0,103.9,89.9,95.9,7.2
1338.75,95.1,103.2,88.9,95.7,7.2
1341.0,94.8,103.2,90.4,96.1,6.5
1343.25,96.4,101.8,89.8,96.0,6.0
1345.5,95.0,104.5,90.8,96.8,7.0
1347.75,95.2,102.3,91.3,96.2,5.6
1350.0,95.1,102.3,91.0,96.1,5.7
1352.25,96.0,104.7,90.6,97.1,7.1
1354.5,96.4,102.5,92.9,97.3,4.9
1356.75,95.5,102.9,91.9,96.8,5.6
1359.0,95.9,102.9,91.5,96.8,5.8
1361.25,96.7,102.9,94.2,97.9,4.5
1363.5,95.8,105.1,91.7,97.5,6.8
1365.75,97.6,103.6,92.4,97.9,5.6
1368.0,96.9,104.3,93.0,98.0,5.7
1370.25,97.3,103.1,91.5,97.3,5.8
1372.5,97.7,103.2,93.4,98.1,4.9
1374.75,97.2,103.6,93.0,97.9,5.3
1377.0,96.5,103.4,91.6,97.2,5.9
1379.25,94.9,104.2,92.2,97.1,6.3
1381.5,96.2,106.0,92.3,98.2,7.0
1383.75,97.7,106.3,93.1,99.0,6.7
1386.0,95.2,106.2,93.5,98.3,6.9
1388.25,97.8,105.4,96.1,99.8,5.0
1390.5,94.8,106.2,93.8,98.3,6.9
1392.75,96.8,106.3,94.4,99.1,6.3
1395.0,95.6,106.6,96.1,99.4,6.2
1397.25,96.6,106.0,94.1,98.9,6.3
1399.5,98.4,106.1,96.3,100.3,5.1
1401.75,98.2,106.9,95.6,100.2,5.9
1404.0,98.3,106.3,95.7,100.1,5.5
1406.25,99.9,107.0,95.9,100.9,5.6
1408.5,97.9,107.4,97.1,100.8,5.7
1410.75,98.9,106.0,95.7,100.2,5.3
1413.0,99.5,105.7,95.5,100.2,5.2
1415.25,101.3,107.0,95.7,101.3,5.7
1417.5,100.6,108.5,95.1,101.4,6.7
1419.75,101.0,108.9,96.2,102.0,6.4
1422.0,100.7,108.5,97.3,102.2,5.7
1424.25,100.8,107.0,97.1,101.7,5.0
1426.5,100.8,107.7,97.1,101.9,5.3
1428.75,101.2,108.0,98.4,102.5,4.9
1431.0,103.3,109.8,98.3,103.8,5.8
1433.25,103.4,110.3,97.6,103.8,6.4
1435.5,103.8,110.2,96.2,103.4,7.0
1437.75,103.6,109.4,96.9,103.3,6.2
1440.0,100.9,110.2,97.9,103.0,6.4
1442.25,102.1,109.1,99.4,103.6,5.0
1444.5,101.6,111.0,98.4,103.7,6.5
1446.75,104.3,114.2,97.7,105.4,8.3
1449.0,105.8,111.6,99.8,105.7,5.9
1451.25,103.8,111.7,98.8,104.7,6.5
1453.5,104.0,110.7,99.8,104.9,5.5
1455.75,103.6,110.7,101.1,105.1,5.0
1458.0,105.0,112.8,98.0,105.3,7.4
1460.25,106.9,111.9,100.2,106.3,5.9
1462.5,105.7,113.2,100.8,106.6,6.3
1464.75,107.2,112.9,99.0,106.4,7.0
1467.0,106.2,112.1,98.8,105.7,6.6
1469.25,106.9,112.1,100.6,106.5,5.8
1471.5,108.1,112.1,100.4,106.9,5.9
1473.75,108.6,114.9,101.9,108.5,6.5
1476.0,108.5,112.7,98.1,106.4,7.5
1478.25,109.8,112.9,99.1,107.3,7.3
1480.5,107.5,114.1,99.6,107.1,7.3
1482.75,106.3,114.0,100.5,106.9,6.7
1485.0,110.2,113.6,100.4,108.1,6.8
1487.25,110.6,111.5,101.3,107.8,5.6
1489.5,111.3,112.2,100.4,107.9,6.6
1491.75,112.3,111.3,100.0,107.9,6.8
1494.0,112.7,111.6,100.7,108.3,6.6
1496.25,112.4,112.5,99.1,108.0,7.7
1498.5,114.4,114.6,101.9,110.3,7.3
1500.75,114.3,112.5,100.7,109.2,7.4
1503.0,115.5,114.6,102.0,110.7,7.5
1505.25,111.8,112.4,102.6,108.9,5.5
1507.5,115.0,112.8,100.9,109.5,7.6
1509.75,113.3,113.1,104.1,110.2,5.2
1512.0,115.1,114.3,103.3,110.9,6.6
1514.25,113.4,113.2,103.3,110.0,5.8
1516.5,115.0,115.7,102.9,111.2,7.2
1518.75,112.7,115.0,104.6,110.8,5.5
1521.0,114.1,115.1,103.6,110.9,6.4
1523.25,116.1,116.2,104.3,112.2,6.8
1525.5,113.8,117.4,102.8,111.3,7.6
1527.75,114.6,115.2,101.4,110.4,7.8
1530.0,114.7,114.5,104.1,111.1,6.1
1532.25,116.4,114.8,104.4,111.9,6.5
1534.5,116.1,116.2,104.1,112.1,6.9
1536.75,116.6,117.2,102.6,112.1,8.3
1539.0,116.8,118.7,104.9,113.5,7.5
1541.25,117.1,117.5,104.8,113.1,7.2
1543.5,115.2,117.4,104.9,112.5,6.7
1545.75,117.6,115.8,104.5,112.6,7.1
1548.0,118.9,114.8,103.0,112.2,8.3
1550.25,116.4,116.1,106.0,112.9,5.9
1552.5,116.8,118.4,104.2,113.1,7.8
1554.75,117.7,118.2,107.6,114.5,6.0
1557.0,115.3,117.8,106.5,113.2,5.9
1559.25,117.4,114.7,104.3,112.1,6.9
1561.5,116.5,118.5,109.2,114.7,4.9
1563.75,117.6,115.9,108.9,114.1,4.6
1566.0,115.2,117.2,108.7,113.7,4.4
1568.25,115.5,117.2,106.4,113.0,5.8
1570.5,114.8,117.5,107.7,113.3,5.1
1572.75,117.6,118.0,107.7,114.4,5.8
1575.0,116.3,115.1,108.3,113.2,4.3
1577.25,114.7,117.6,107.2,113.2,5.4
1579.5,115.8,115.3,108.3,113.1,4.2
1581.75,113.9,114.9,108.9,112.6,3.2
1584.0,113.2,116.4,108.3,112.6,4.1
1586.25,113.6,117.0,110.5,113.7,3.3
1588.5,115.0,117.0,110.7,114.2,3.2
1590.75,114.6,118.0,108.4,113.6,4.9
1593.0,113.1,116.5,110.2,113.3,3.1
1595.25,114.9,118.6,111.0,114.8,3.8
1597.5,113.5,117.4,110.7,113.9,3.4
1599.75,112.0,116.9,110.6,113.2,3.3
1602.0,112.2,116.1,111.1,113.2,2.7
1604.25,111.6,115.0,110.9,112.5,2.2
1606.5,112.3,115.2,113.5,113.7,1.5
1608.75,113.2,115.9,112.9,114.0,1.6
1611.0,110.8,117.1,114.3,114.1,3.2
1613.25,109.3,114.6,114.0,112.6,2.9
1615.5,109.4,116.9,112.4,112.9,3.8
1617.75,110.5,117.4,112.1,113.3,3.6
1620.0,110.5,117.4,112.6,113.5,3.5
1622.25,109.4,115.3,112.4,112.4,2.9
1624.5,110.6,116.2,112.3,113.0,2.9
1626.75,109.5,116.4,114.0,113.3,3.5
1629.0,110.6,117.4,113.0,113.7,3.5
1631.25,111.0,115.0,114.3,113.4,2.1
1633.5,109.2,115.2,115.7,113.3,3.6
1635.75,109.5,118.5,117.7,115.2,4.9
1638.0,109.4,116.9,115.5,113.9,4.0
1640.25,106.9,118.1,117.1,114.0,6.2
1642.5,109.7,116.6,115.4,113.9,3.7
1644.75,107.6,114.4,117.0,113.0,4.9
1647.0,108.8,117.2,115.2,113.7,4.4
1649.25,107.8,117.4,113.2,112.8,4.8
1651.5,108.1,118.1,115.4,113.9,5.2
1653.75,108.4,117.4,116.5,114.1,4.9
1656.0,110.4,115.8,117.5,114.6,3.7
1658.25,110.7,117.3,114.6,114.2,3.3
1660.5,109.4,118.7,115.3,114.5,4.7
1662.75,109.1,118.5,118.8,115.5,5.5
1665.0,111.5,118.5,115.5,115.2,3.5
1667.25,111.8,119.8,114.6,115.4,4.1
1669.5,110.7,119.3,115.6,115.2,4.3
1671.75,112.0,119.9,117.1,116.3,4.0
1674.0,110.9,117.7,116.5,115.0,3.7
1676.25,112.7,115.7,117.1,115.2,2.2
1678.5,112.7,116.5,117.5,115.6,2.5
1680.75,112.2,116.5,117.3,115.4,2.7
1683.0,111.9,117.1,117.7,115.6,3.2
1685.25,113.1,117.5,117.4,116.0,2.5
1687.5,113.2,117.5,118.8,116.5,2.9
1689.75,112.7,117.3,119.8,116.6,3.6
1692.0,113.9,117.5,120.4,117.3,3.3
1694.25,114.3,116.3,119.1,116.6,2.4
1696.5,113.2,114.5,117.5,115.1,2.2
1698.75,116.0,116.1,117.6,116.6,0.9
1701.0,114.5,115.1,118.3,116.0,2.0
1703.25,113.6,117.1,120.6,117.1,3.5
1705.5,115.9,116.6,119.3,117.3,1.8
1707.75,119.4,116.3,119.8,118.5,1.9
1710.0,117.4,118.3,121.9,119.2,2.4
1712.25,117.9,115.8,120.5,118.1,2.4
1714.5,117.9,115.6,120.8,118.1,2.6
1716.75,116.4,116.7,121.8,118.3,3.0
1719.0,116.4,117.3,121.6,118.4,2.8
1721.25,117.4,115.0,124.6,119.0,5.0
1723.5,119.4,117.3,122.0,119.6,2.3
1725.75,119.4,117.3,120.0,118.9,1.4
1728.0,117.9,115.5,120.7,118.0,2.6
1730.25,117.4,113.8,119.7,117.0,3.0
1732.5,121.3,114.6,120.4,118.8,3.7
1734.75,121.5,115.2,120.0,118.9,3.3
1737.0,120.8,116.8,121.6,119.7,2.6
1739.25,122.0,116.9,121.7,120.2,2.9
1741.5,124.8,115.3,122.4,120.9,4.9
1743.75,122.6,116.6,126.2,121.8,4.9
1746.0,121.5,116.1,123.0,120.2,3.6
1748.25,122.4,118.0,123.1,121.1,2.8
1750.5,122.2,114.3,122.7,119.7,4.7
1752.75,121.9,116.7,122.8,120.5,3.3
1755.0,121.7,117.9,123.1,120.9,2.7
1757.25,122.7,119.3,124.7,122.2,2.7
1759.5,123.4,117.2,124.9,121.8,4.1
1761.75,121.4,116.9,122.6,120.3,3.0
1764.0,122.1,118.3,122.6,121.0,2.4
1766.25,122.0,118.6,125.3,122.0,3.3
1768.5,123.5,119.7,124.5,122.6,2.5
1770.75,124.1,118.2,123.8,122.0,3.3
1773.0,120.8,122.3,125.6,122.9,2.4
1775.25,124.5,117.5,124.9,122.3,4.1
1777.5,121.5,120.8,124.6,122.3,2.0
1779.75,122.6,117.7,125.1,121.8,3.8
1782.0,122.4,120.4,124.2,122.3,1.9
1784.25,122.5,120.5,123.9,122.3,1.7
1786.5,122.0,121.2,124.4,122.6,1.7
1788.75,123.0,120.7,126.2,123.3,2.7
1791.0,122.0,122.3,126.7,123.7,2.7
1793.25,122.1,123.8,123.9,123.3,1.0
1795.5,121.7,122.2,122.2,122.1,0.3
1797.75,126.0,122.9,124.1,124.3,1.6
1800.0,122.9,124.6,122.3,123.3,1.2
1802.25,123.9,124.7,123.2,123.9,0.7
1804.5,122.6,123.2,123.5,123.1,0.5
1806.75,121.9,124.1,124.3,123.4,1.4
1809.0,122.1,124.7,124.8,123.9,1.6
1811.25,123.0,124.4,126.5,124.6,1.7
1813.5,121.7,124.6,127.4,124.6,2.9
1815.75,123.2,121.3,126.1,123.5,2.4
1818.0,124.7,123.7,123.6,124.0,0.6
1820.25,122.3,124.2,124.3,123.6,1.1
1822.5,121.5,125.3,125.3,124.0,2.2
1824.75,122.5,127.5,125.1,125.0,2.5
1827.0,121.7,126.4,125.0,124.4,2.4
1829.25,121.7,126.5,126.2,124.8,2.7
1831.5,120.8,126.3,126.6,124.6,3.3
1833.75,122.2,126.1,125.0,124.5,2.0
1836.0,122.6,129.1,123.7,125.1,3.5
1838.25,122.8,126.6,124.3,124.6,1.9
1840.5,120.5,124.8,125.5,123.6,2.7
1842.75,120.2,126.9,124.8,123.9,3.4
1845.0,121.8,129.3,125.8,125.6,3.7
1847.25,121.1,127.1,125.4,124.5,3.1
1849.5,121.8,125.7,126.6,124.7,2.5
1851.75,120.4,126.7,126.0,124.4,3.5
1854.0,120.0,126.8,125.7,124.2,3.6
1856.25,120.3,125.3,125.2,123.6,2.9
1858.5,121.1,123.9,125.6,123.5,2.3
1860.75,121.2,124.7,127.9,124.6,3.3
1863.0,123.4,124.7,127.9,125.3,2.3
1865.25,122.2,127.6,129.7,126.5,3.9
1867.5,122.4,127.8,129.7,126.6,3.8
1869.75,121.5,128.1,125.0,124.9,3.3
1872.0,123.0,126.5,125.7,125.1,1.8
1874.25,120.7,128.3,127.5,125.5,4.2
1876.5,120.4,127.1,128.6,125.4,4.4
1878.75,120.6,125.4,127.2,124.4,3.4
1881.0,120.8,126.6,128.3,125.2,3.9
1883.25,119.2,128.7,127.4,125.1,5.1
1885.5,117.6,125.9,127.7,123.7,5.4
1887.75,116.6,129.5,127.6,124.6,7.0
1890.0,119.6,128.5,126.1,124.8,4.6
1892.25,118.3,129.5,127.3,125.0,5.9
1894.5,119.5,128.7,126.9,125.0,4.9
1896.75,118.2,128.4,128.0,124.9,5.8
1899.0,119.2,129.3,127.3,125.2,5.4
1901.25,118.2,127.1,129.7,125.0,6.0
1903.5,120.0,126.0,130.0,125.4,5.0
1905.75,119.2,126.5,129.0,124.9,5.1
1908.0,118.4,126.4,128.2,124.3,5.2
1910.25,117.7,125.9,129.6,124.4,6.1
1912.5,118.5,129.8,128.6,125.7,6.2
1914.75,117.2,126.7,131.2,125.0,7.2
1917.0,117.7,129.6,129.4,125.6,6.8
1919.25,118.4,127.4,131.4,125.7,6.6
1921.5,118.1,128.5,129.8,125.5,6.4
1923.75,121.0,126.1,129.5,125.5,4.3
1926.0,117.9,128.0,128.9,124.9,6.1
1928.25,117.8,126.9,132.3,125.7,7.3
1930.5,118.5,127.8,130.6,125.6,6.3
1932.75,116.5,129.1,131.4,125.7,8.0
1935.0,117.7,127.1,127.5,124.1,5.6
1937.25,119.9,127.5,130.1,125.8,5.3
1939.5,120.7,127.8,127.8,125.4,4.1
1941.75,120.5,128.6,128.9,126.0,4.8
1944.0,118.7,126.4,127.8,124.3,4.9
1946.25,121.8,126.8,129.1,125.9,3.8
1948.5,119.2,128.2,129.7,125.7,5.7
1950.75,119.1,130.9,129.6,126.5,6.5
1953.0,120.5,135.2,128.4,128.0,7.3
1955.25,116.5,131.1,129.5,125.7,8.0
1957.5,120.7,128.4,129.6,126.2,4.9
1959.75,119.2,129.2,129.7,126.0,5.9
1962.0,119.6,131.7,127.8,126.4,6.2
1964.25,118.7,130.1,128.3,125.7,6.1
1966.5,118.5,129.6,126.2,124.7,5.7
1968.75,119.7,132.8,126.6,126.3,6.6
1971.0,121.0,131.9,127.6,126.8,5.5
1973.25,119.0,129.5,127.8,125.4,5.6
1975.5,117.5,130.9,127.0,125.1,6.9
1977.75,119.3,129.8,127.9,125.7,5.6
1980.0,119.0,130.2,128.1,125.8,6.0
1982.25,119.4,131.5,127.1,126.0,6.1
1984.5,119.3,134.1,128.2,127.2,7.5
1986.75,119.9,131.0,128.4,126.5,5.8
1989.0,118.2,129.0,128.7,125.3,6.1
1991.25,119.7,129.4,127.8,125.6,5.2
1993.5,117.9,131.9,129.9,126.5,7.6
1995.75,120.3,131.6,129.3,127.1,5.9
1998.0,118.7,132.5,129.9,127.0,7.4
2000.25,118.9,131.4,126.4,125.6,6.3
2002.5,118.5,134.0,130.3,127.6,8.1
2004.75,118.3,134.0,130.0,127.4,8.1
2007.0,118.6,135.6,130.5,128.2,8.7
2009.25,118.7,135.8,128.7,127.7,8.6
2011.5,119.6,132.4,129.9,127.3,6.8
2013.75,120.6,134.1,129.2,128.0,6.8
2016.0,121.4,132.5,126.4,126.8,5.5
2018.25,120.0,133.3,127.6,127.0,6.7
2020.5,120.4,133.9,131.0,128.4,7.1
2022.75,121.7,134.0,130.6,128.8,6.4
2025.0,120.2,134.0,128.6,127.6,6.9
2027.25,118.4,135.0,128.2,127.2,8.4
2029.5,117.9,134.4,129.4,127.2,8.5
2031.75,119.5,137.2,131.1,129.3,9.0
2034.0,119.1,133.8,127.6,126.8,7.4
2036.25,122.7,134.1,130.4,129.0,5.8
2038.5,121.1,133.8,129.7,128.2,6.5
2040.75,122.7,135.4,129.1,129.1,6.3
2043.0,121.2,130.7,130.0,127.3,5.3
2045.25,120.3,135.6,127.8,127.9,7.7
2047.5,122.0,134.2,130.2,128.8,6.2
2049.75,122.2,134.6,129.0,128.6,6.2
2052.0,122.7,135.9,127.9,128.8,6.6
2054.25,120.8,137.7,130.4,129.6,8.5
2056.5,120.4,133.2,129.5,127.7,6.6
2058.75,123.5,134.7,129.9,129.3,5.6
2061.0,120.9,140.1,130.0,130.3,9.6
2063.25,123.6,134.6,129.3,129.2,5.5
2065.5,123.5,136.9,130.6,130.3,6.7
2067.75,123.5,136.5,129.5,129.8,6.5
2070.0,123.2,136.3,130.2,129.9,6.6
2072.25,124.0,138.1,129.7,130.6,7.1
2074.5,124.0,136.4,130.8,130.4,6.2
2076.75,125.5,136.7,130.2,130.8,5.6
2079.0,124.0,136.0,132.9,131.0,6.2
2081.25,123.0,138.4,130.6,130.7,7.7
2083.5,124.1,138.2,131.6,131.3,7.0
2085.75,125.2,135.6,130.8,130.5,5.2
2088.0,124.1,137.3,127.9,129.8,6.8
2090.25,123.8,138.4,131.7,131.3,7.3
2092.5,125.6,138.1,129.0,130.9,6.5
2094.75,125.4,136.2,128.8,130.2,5.5
2097.0,125.7,137.1,130.2,131.0,5.8
2099.25,124.5,139.4,131.3,131.7,7.5
2101.5,124.6,138.3,131.3,131.4,6.8
2103.75,124.5,141.4,129.7,131.9,8.6
2106.0,125.0,140.2,129.2,131.5,7.8
2108.25,123.9,140.9,128.1,131.0,8.9
2110.5,124.5,140.4,128.4,131.1,8.3
2112.75,125.4,138.5,128.5,130.8,6.8
2115.0,127.0,141.8,130.2,133.0,7.8
2117.25,124.8,140.6,128.5,131.3,8.3
2119.5,126.8,140.5,130.4,132.6,7.1
2121.75,125.9,141.1,131.4,132.8,7.7
2124.0,128.1,139.5,129.5,132.4,6.3
2126.25,129.5,138.4,129.5,132.5,5.1
2128.5,125.9,138.6,129.8,131.5,6.5
2130.75,125.2,140.6,129.8,131.9,7.9
2133.0,125.2,139.1,129.4,131.2,7.2
2135.25,125.6,140.5,130.0,132.0,7.6
2137.5,127.0,139.6,128.7,131.7,6.9
2139.75,125.1,139.5,129.8,131.5,7.4
2142.0,126.0,140.5,129.5,132.0,7.6
2144.25,125.4,143.6,129.4,132.8,9.6
2146.5,126.8,142.0,128.5,132.5,8.3
2148.75,125.8,142.0,129.2,132.3,8.5
2151.0,128.9,144.5,129.6,134.3,8.8
2153.25,125.9,143.7,130.1,133.2,9.3
2155.5,128.5,144.0,130.1,134.2,8.5
2157.75,125.9,140.4,131.6,132.6,7.3
2160.0,125.6,141.5,131.7,132.9,8.0
2162.25,127.4,143.0,133.9,134.8,7.8
2164.5,126.4,140.1,132.4,132.9,6.9
2166.75,127.3,141.6,131.0,133.3,7.5
2169.0,128.4,141.5,130.6,133.5,7.0
2171.25,126.4,141.8,131.3,133.2,7.9
2173.5,126.2,140.0,130.2,132.2,7.1
2175.75,126.6,141.6,131.3,133.1,7.7
2178.0,127.4,142.1,132.0,133.9,7.5
2180.25,126.5,138.9,129.8,131.7,6.4
2182.5,124.2,140.0,131.2,131.8,7.9
2184.75,126.6,142.0,130.7,133.1,8.0
2187.0,125.8,141.3,131.8,133.0,7.8
2189.25,123.6,140.9,130.2,131.6,8.7
2191.5,126.6,139.4,131.3,132.4,6.5
2193.75,126.4,139.0,130.9,132.1,6.4
2196.0,125.5,141.7,131.3,132.8,8.2
2198.25,127.0,136.5,130.5,131.4,4.8
2200.5,126.7,138.4,131.4,132.2,5.9
2202.75,126.5,134.6,129.8,130.3,4.1
2205.0,126.5,134.8,127.3,129.5,4.6
2207.25,124.9,135.9,128.4,129.8,5.6
2209.5,124.2,138.4,128.3,130.3,7.3
2211.75,123.8,135.6,128.6,129.3,5.9
2214.0,125.5,138.1,130.0,131.2,6.4
2216.25,126.3,135.9,129.9,130.7,4.9
2218.5,127.6,134.9,129.2,130.6,3.8
2220.75,127.6,135.4,130.0,131.0,4.0
2223.0,125.7,134.9,130.5,130.4,4.6
2225.25,128.8,134.0,129.7,130.8,2.8
2227.5,126.5,134.0,128.4,129.6,3.9
2229.75,127.8,135.8,131.1,131.6,4.0
2232.0,127.0,132.3,131.1,130.1,2.8
2234.25,125.0,132.6,127.2,128.3,3.9
2236.5,126.5,134.5,127.7,129.6,4.3
2238.75,125.8,133.7,130.0,129.8,4.0
2241.0,128.0,132.3,130.7,130.3,2.2
2243.25,127.0,130.5,128.4,128.6,1.7
2245.5,128.5,130.4,129.8,129.6,1.0
2247.75,128.3,131.2,127.9,129.1,1.8
2250.0,126.3,134.0,129.7,130.0,3.9
2252.25,126.8,131.1,126.9,128.3,2.4
2254.5,128.3,129.5,129.0,129.0,0.6
2256.75,121.6,132.6,130.2,128.2,5.8
2259.0,125.2,131.5,129.6,128.8,3.2
2261.25,127.5,128.5,132.5,129.5,2.6
2263.5,125.7,130.8,127.2,127.9,2.7
2265.75,124.5,130.6,129.2,128.1,3.2
2268.0,123.5,130.7,129.2,127.8,3.8
2270.25,124.3,129.8,127.9,127.3,2.8
2272.5,125.4,130.1,130.0,128.5,2.7
2274.75,124.5,126.7,125.3,125.5,1.1
2277.0,123.6,129.1,126.9,126.6,2.8
2279.25,125.0,129.9,128.6,127.8,2.5
2281.5,124.5,129.7,125.7,126.6,2.7
2283.75,126.0,125.6,127.5,126.4,1.0
2286.0,125.3,127.2,125.6,126.0,1.0
2288.25,123.5,125.9,125.9,125.1,1.4
2290.5,125.9,126.4,126.9,126.4,0.5
2292.75,126.0,125.9,127.6,126.5,0.9
2295.0,124.8,127.1,125.1,125.7,1.3
2297.25,122.6,125.1,128.2,125.3,2.8
2299.5,122.6,127.0,126.6,125.4,2.5
2301.75,122.1,123.5,126.6,124.1,2.3
2304.0,123.7,124.4,127.0,125.1,1.8
2306.25,122.2,122.9,125.1,123.4,1.5
2308.5,122.0,124.9,124.5,123.8,1.6
2310.75,123.1,121.8,128.2,124.4,3.4
2313.0,122.8,121.8,125.8,123.5,2.1
2315.25,121.9,121.9,127.4,123.7,3.2
2317.5,123.1,119.6,126.1,123.0,3.3
2319.75,123.4,118.0,125.4,122.2,3.8
2322.0,122.3,118.0,125.5,121.9,3.8
2324.25,122.5,120.8,124.0,122.4,1.6
2326.5,121.8,122.8,124.2,122.9,1.3
2328.75,123.0,118.5,125.4,122.3,3.5
2331.0,123.2,118.6,125.0,122.3,3.3
2333.25,121.2,116.0,122.2,119.8,3.3
2335.5,123.4,116.6,122.9,121.0,3.8
2337.75,123.3,117.6,123.5,121.5,3.4
2340.0,120.9,116.4,123.4,120.2,3.5
2342.25,122.5,114.8,123.6,120.3,4.8
2344.5,120.8,117.6,122.3,120.3,2.4
2346.75,122.7,116.6,122.3,120.5,3.4
2349.0,120.0,114.3,122.9,119.1,4.4
2351.25,124.1,113.8,121.4,119.7,5.4
2353.5,122.5,114.3,121.5,119.4,4.5
2355.75,122.8,112.8,123.2,119.6,5.9
2358.0,123.7,112.2,121.2,119.0,6.1
2360.25,122.7,111.1,119.2,117.7,6.0
2362.5,121.6,111.6,120.3,117.8,5.4
2364.75,121.9,110.9,117.0,116.6,5.5
2367.0,122.5,108.7,120.4,117.2,7.5
2369.25,121.9,109.1,119.3,116.8,6.8
2371.5,121.0,109.0,119.8,116.6,6.6
2373.75,123.7,108.4,118.8,117.0,7.9
2376.0,122.0,106.7,118.6,115.8,8.0
2378.25,122.1,107.9,117.6,115.9,7.3
2380.5,120.2,107.4,121.1,116.3,7.7
2382.75,119.2,106.6,118.0,114.6,6.9
2385.0,120.4,105.7,117.6,114.6,7.8
2387.25,120.7,106.7,117.3,114.9,7.3
2389.5,117.9,104.1,118.2,113.4,8.1
2391.75,118.1,101.9,118.6,112.9,9.5
2394.0,115.8,100.6,115.3,110.5,8.6
2396.25,118.4,100.2,117.0,111.8,10.1
2398.5,116.5,100.4,115.1,110.7,9.0
2400.75,114.5,99.0,114.6,109.4,9.0
2403.0,115.9,99.4,115.1,110.1,9.3
2405.25,113.4,99.9,115.1,109.4,8.3
2407.5,111.4,98.9,114.7,108.4,8.4
2409.75,111.9,96.3,115.4,107.8,10.2
2412.0,109.1,96.7,115.2,107.0,9.4
2414.25,106.9,95.3,117.8,106.6,11.2
2416.5,104.3,93.1,115.2,104.2,11.0
2418.75,105.7,94.1,114.7,104.8,10.3
2421.0,101.3,91.9,113.8,102.3,11.0
2423.25,99.7,89.4,113.1,100.8,11.9
2425.5,97.9,89.1,112.9,100.0,12.0
2427.75,96.9,87.6,112.4,99.0,12.5
2430.0,93.9,85.9,112.6,97.5,13.7
2432.25,92.4,81.7,111.6,95.2,15.2
2434.5,90.9,80.2,112.0,94.4,16.2
2436.75,89.5,78.8,111.5,93.2,16.7
2439.0,86.6,76.8,112.2,91.8,18.3
2441.25,82.2,74.0,111.8,89.3,19.9
2443.5,78.4,70.3,112.0,86.9,22.1
2445.75,76.5,67.5,111.3,85.1,23.1
2448.0,73.1,65.5,111.2,83.3,24.5
2450.25,71.7,64.0,109.8,81.9,24.5
2452.5,68.9,61.5,111.6,80.7,27.0
2454.75,67.5,60.1,110.0,79.2,26.9
2457.0,65.1,60.2,111.1,78.8,28.1
2459.25,63.7,58.3,110.6,77.6,28.8
2461.5,62.2,57.8,109.6,76.5,28.7
2463.75,61.2,57.2,110.2,76.2,29.5
2466.0,59.7,56.0,108.8,74.8,29.5
2468.25,58.4,53.6,107.6,73.2,29.9
2470.5,56.9,53.5,109.2,73.2,31.2
2472.75,57.4,53.1,108.5,73.0,30.8
2475.0,55.6,51.9,109.4,72.3,32.2
2477.25,54.7,51.0,108.0,71.3,31.9
2479.5,54.5,49.1,106.6,70.0,31.8
2481.75,53.4,48.8,104.5,68.9,30.9
2484.0,51.7,47.9,104.2,67.9,31.4
2486.25,51.6,47.1,106.7,68.5,33.2
2488.5,51.6,47.2,102.9,67.2,30.9
2490.75,50.1,47.4,101.9,66.4,30.7
2493.0,49.6,45.5,101.3,65.4,31.1
2495.25,48.9,44.3,100.7,64.6,31.3
2497.5,47.6,44.3,101.4,64.4,32.0
2499.75,47.7,44.2,101.5,64.5,32.1
2502.0,47.9,44.4,98.3,63.6,30.1
2504.25,47.5,43.4,97.5,62.8,30.1
2506.5,47.8,42.6,97.0,62.5,30.1
2508.75,47.0,42.1,96.0,61.7,29.8
2511.0,46.9,42.5,95.3,61.6,29.3
2513.25,46.3,42.8,92.7,60.6,27.9
2515.5,46.7,42.5,91.4,60.2,27.1
2517.75,45.6,43.1,87.1,58.6,24.7
2520.0,45.4,43.2,86.9,58.5,24.6
2522.25,44.9,43.3,83.0,57.1,22.5
2524.5,44.7,42.2,82.1,56.4,22.3
2526.75,44.7,42.3,77.4,54.8,19.6
2529.0,44.4,40.4,75.4,53.4,19.1
2531.25,43.9,40.4,71.8,52.0,17.2
2533.5,42.9,40.2,68.3,50.4,15.5
2535.75,43.5,39.8,66.6,49.9,14.5
2538.0,43.1,39.7,65.4,49.4,14.0
2540.25,43.9,39.0,63.8,48.9,13.1
2542.5,44.2,40.4,62.9,49.2,12.0
2544.75,43.5,40.5,60.9,48.3,11.0
2547.0,42.6,39.5,59.9,47.3,11.0
2549.25,43.1,39.1,57.8,46.7,9.9
2551.5,42.7,38.8,57.2,46.2,9.7
2553.75,43.0,39.8,55.9,46.2,8.5
2556.0,43.0,38.9,55.4,45.8,8.6
2558.25,42.1,39.3,53.7,45.0,7.6
2560.5,42.2,39.8,53.0,45.0,7.0
2562.75,41.9,38.0,53.2,44.4,7.9
2565.0,41.6,38.5,51.6,43.9,6.8
2567.25,42.1,36.9,50.6,43.2,6.9
2569.5,41.5,37.6,49.5,42.9,6.1
2571.75,42.0,37.7,48.3,42.7,5.3
2574.0,42.2,38.5,47.0,42.6,4.3
2576.25,41.4,38.7,46.7,42.3,4.1
2578.5,41.8,38.9,46.2,42.3,3.7
2580.75,42.1,38.6,45.9,42.2,3.6
2583.0,42.0,38.6,45.5,42.0,3.4
2585.25,42.3,37.6,46.0,42.0,4.2
2587.5,42.3,37.3,45.7,41.8,4.2
2589.75,42.3,37.6,45.9,42.0,4.2
2592.0,42.0,37.7,44.4,41.4,3.4
2594.25,41.5,37.6,44.2,41.1,3.4
2596.5,42.1,37.7,44.0,41.2,3.2
2598.75,41.3,37.0,43.4,40.6,3.2
2601.0,41.5,35.8,43.0,40.1,3.8
2603.25,40.9,36.0,42.7,39.9,3.5
2605.5,40.9,36.2,42.7,39.9,3.4
2607.75,41.9,36.4,42.3,40.2,3.3
2610.0,41.6,36.1,41.6,39.8,3.2
2612.25,40.9,36.4,42.3,39.9,3.1
2614.5,40.6,36.8,42.8,40.0,3.0
2616.75,41.1,36.0,42.7,40.0,3.5
2619.0,40.5,36.1,41.6,39.4,2.9
2621.25,40.3,36.5,41.0,39.3,2.4
2623.5,40.0,36.4,41.0,39.2,2.4
2625.75,40.7,36.4,40.9,39.3,2.5
2628.0,38.9,36.7,40.2,38.6,1.8
2630.25,38.8,36.9,40.7,38.8,1.9
2632.5,39.1,37.0,41.4,39.1,2.2
2634.75,38.5,37.9,41.3,39.2,1.8
2637.0,39.2,37.3,41.4,39.3,2.0
2639.25,39.1,37.1,41.9,39.3,2.4
2641.5,39.5,36.7,41.5,39.2,2.4
2643.75,39.3,36.7,41.3,39.1,2.3
2646.0,40.1,38.0,41.6,39.9,1.8
2648.25,40.4,37.8,41.6,39.9,1.9
2650.5,40.4,37.4,40.9,39.5,1.9
2652.75,40.1,38.0,41.3,39.8,1.7
2655.0,39.4,37.3,42.0,39.6,2.3
2657.25,39.3,36.7,41.2,39.1,2.3
2659.5,37.8,36.9,40.7,38.5,2.0
2661.75,37.5,36.7,39.9,38.1,1.7
2664.0,38.1,36.5,39.5,38.0,1.5
2666.25,39.7,36.4,39.4,38.5,1.8
2668.5,40.1,36.0,39.5,38.5,2.2
2670.75,40.2,35.7,39.6,38.5,2.4
2673.0,40.7,35.9,39.8,38.8,2.6
2675.25,40.0,35.3,39.9,38.4,2.7
2677.5,39.3,35.2,39.5,38.0,2.4
2679.75,39.2,35.3,40.5,38.3,2.7
2682.0,39.5,34.6,39.7,37.9,2.9
2684.25,39.9,34.4,39.2,37.8,3.0
2686.5,39.7,35.0,39.3,38.0,2.6
2688.75,38.7,34.0,39.7,37.5,3.1
2691.0,38.7,34.7,40.1,37.8,2.8
2693.25,38.1,33.9,40.2,37.4,3.2
2695.5,38.2,34.0,39.4,37.2,2.8
2697.75,38.8,33.9,39.1,37.3,2.9
2700.0,37.9,34.4,39.1,37.1,2.5
2702.25,37.6,35.5,38.8,37.3,1.7
2704.5,37.4,35.1,38.6,37.0,1.8
2706.75,37.6,34.5,39.9,37.3,2.7
2709.0,37.8,34.8,39.8,37.4,2.5
2711.25,38.8,34.6,39.2,37.5,2.6
2713.5,39.7,33.8,38.6,37.4,3.1
2715.75,39.1,34.1,39.1,37.4,2.9
2718.0,40.0,34.6,38.7,37.8,2.8
2720.25,40.0,34.2,38.8,37.7,3.0
2722.5,39.7,34.1,39.5,37.7,3.2
2724.75,39.6,34.0,38.9,37.5,3.1
2727.0,39.3,33.8,38.8,37.3,3.0
2729.25,39.0,34.0,39.2,37.4,2.9
2731.5,38.4,34.2,38.7,37.1,2.5
2733.75,38.9,34.5,39.0,37.5,2.6
2736.0,37.9,34.2,38.6,36.9,2.4
2738.25,38.6,34.2,38.6,37.1,2.5
2740.5,38.8,34.5,38.3,37.2,2.4
2742.75,39.2,34.1,38.0,37.1,2.7
2745.0,38.1,34.4,38.2,36.9,2.2
2747.25,37.5,34.6,38.0,36.7,1.8
2749.5,38.2,34.6,37.3,36.7,1.9
2751.75,38.1,34.0,37.2,36.4,2.2
2754.0,37.7,34.3,36.9,36.3,1.8
2756.25,38.0,34.1,37.0,36.4,2.0
2758.5,37.4,34.1,37.4,36.3,1.9
2760.75,37.2,34.0,36.5,35.9,1.7
2763.0,38.0,33.6,37.5,36.4,2.4
2765.25,38.6,33.4,38.2,36.7,2.9
2767.5,37.9,33.3,36.9,36.1,2.4
2769.75,37.4,34.1,36.8,36.1,1.8
2772.0,38.7,33.5,36.5,36.2,2.6
2774.25,37.0,33.9,37.0,36.0,1.7
2776.5,36.9,33.8,37.3,36.0,1.9
2778.75,37.3,33.9,37.6,36.3,2.0
2781.0,37.5,33.5,36.9,36.0,2.1
2783.25,37.8,33.5,37.1,36.2,2.3
2785.5,38.2,32.8,37.8,36.3,3.0
2787.75,38.7,32.6,36.6,36.0,3.1
2790.0,38.2,32.5,36.2,35.6,2.9
2792.25,37.8,32.5,36.3,35.5,2.7
2794.5,38.3,32.2,36.6,35.7,3.1
2796.75,38.2,32.8,36.0,35.7,2.7
2799.0,38.5,33.4,35.8,35.9,2.5
2801.25,38.4,33.3,35.8,35.8,2.5
2803.5,38.5,33.4,35.0,35.7,2.6
2805.75,37.6,33.0,35.2,35.3,2.3
2808.0,37.8,32.7,35.6,35.4,2.5
2810.25,37.5,32.6,35.2,35.1,2.4
2812.5,37.2,32.8,35.3,35.1,2.2
2814.75,37.9,33.5,35.4,35.6,2.2
2817.0,38.3,33.6,35.2,35.7,2.4
2819.25,39.1,33.5,35.9,36.2,2.8
2821.5,38.9,33.4,35.6,36.0,2.7
2823.75,38.4,32.6,35.1,35.4,3.0
2826.0,37.8,32.3,35.7,35.3,2.8
2828.25,37.2,32.2,36.6,35.3,2.7
2830.5,37.0,32.8,36.4,35.4,2.3
2832.75,37.4,33.2,37.7,36.1,2.5
2835.0,37.7,33.4,37.5,36.2,2.4
2837.25,36.8,33.3,36.7,35.6,2.0
2839.5,37.1,33.5,36.8,35.8,2.0
2841.75,36.6,32.8,36.6,35.3,2.2
2844.0,36.6,31.9,36.1,34.9,2.6
2846.25,36.8,31.4,36.0,34.7,2.9
2848.5,36.8,31.1,36.3,34.7,3.1
2850.75,36.7,30.8,35.8,34.4,3.2
2853.0,36.4,31.9,35.7,34.7,2.5
2855.25,36.4,33.1,35.7,35.1,1.7
2857.5,36.1,33.7,35.3,35.0,1.2
2859.75,35.7,34.6,35.3,35.2,0.5
2862.0,34.7,33.9,34.9,34.5,0.5
2864.25,35.0,33.7,34.2,34.3,0.7
2866.5,35.4,33.4,35.0,34.6,1.1
2868.75,35.0,32.6,35.2,34.3,1.5
2871.0,34.5,32.8,35.6,34.3,1.4
2873.25,34.6,32.5,35.6,34.3,1.6
2875.5,34.8,33.0,35.9,34.5,1.5
2877.75,34.8,32.0,36.3,34.4,2.2
2880.0,34.8,32.9,36.0,34.6,1.6
2882.25,35.6,33.0,36.1,34.9,1.7
2884.5,35.4,33.5,36.1,35.0,1.3
2886.75,35.7,33.8,35.8,35.1,1.1
2889.0,35.7,33.7,36.0,35.1,1.3
2891.25,36.4,32.7,36.5,35.2,2.2
2893.5,36.2,32.4,36.4,35.0,2.2
2895.75,35.9,31.6,36.7,34.7,2.7
2898.0,35.2,31.6,36.1,34.3,2.4
2900.25,36.3,31.6,36.0,34.6,2.6
2902.5,36.3,31.4,36.5,34.8,2.9
2904.75,36.6,31.1,35.7,34.5,2.9
2907.0,36.1,31.2,36.2,34.5,2.8
2909.25,36.6,32.1,36.0,34.9,2.4
2911.5,36.9,31.8,36.3,35.0,2.7
2913.75,37.2,32.4,36.4,35.3,2.6
2916.0,37.9,32.8,36.3,35.6,2.6
2918.25,37.3,32.1,35.7,35.0,2.6
2920.5,37.2,32.0,36.0,35.1,2.8
2922.75,36.6,31.9,36.8,35.1,2.8
2925.0,36.6,32.0,37.7,35.4,3.0
2927.25,36.3,32.8,37.7,35.6,2.5
2929.5,36.8,32.4,37.2,35.5,2.7
2931.75,36.2,32.3,36.7,35.1,2.4
2934.0,36.1,31.3,36.9,34.8,3.0
2936.25,35.7,31.7,35.8,34.4,2.4
2938.5,35.9,32.0,35.8,34.6,2.2
2940.75,36.2,32.0,35.6,34.6,2.2
2943.0,36.2,31.9,36.0,34.7,2.4
2945.25,35.7,32.7,35.2,34.5,1.6
2947.5,36.4,32.9,35.6,35.0,1.9
2949.75,36.6,33.2,35.3,35.0,1.7
2952.0,36.3,32.6,35.5,34.8,2.0
2954.25,35.7,33.4,36.0,35.0,1.4
2956.5,35.3,33.5,36.0,35.0,1.3
2958.75,35.3,33.7,35.3,34.8,0.9
2961.0,35.2,33.3,34.9,34.5,1.0
2963.25,36.3,32.8,35.0,34.7,1.7
2965.5,36.5,31.9,34.7,34.4,2.3
2967.75,36.4,31.7,34.0,34.0,2.3
2970.0,36.5,31.4,33.3,33.7,2.6
2972.25,36.2,30.7,33.8,33.6,2.8
2974.5,35.3,30.4,34.2,33.3,2.6
2976.75,35.6,30.4,33.4,33.1,2.6
2979.0,35.7,30.4,34.0,33.4,2.7
2981.25,36.9,30.5,34.6,34.0,3.3
2983.5,36.4,29.6,34.1,33.4,3.5
2985.75,36.2,30.3,34.7,33.7,3.0
2988.0,36.0,30.2,34.5,33.6,3.0
2990.25,36.8,31.3,34.4,34.2,2.7
2992.5,36.9,30.8,35.3,34.3,3.1
2994.75,36.1,30.3,34.6,33.7,3.0
2997.0,35.7,30.9,35.2,33.9,2.7
2999.25,34.9,30.4,35.2,33.5,2.7
3001.5,35.2,29.9,35.0,33.3,3.0
3003.75,35.1,29.7,35.4,33.4,3.2
3006.0,35.2,30.0,34.3,33.2,2.8
3008.25,35.7,30.2,33.6,33.1,2.8
3010.5,35.0,30.0,34.0,33.0,2.6
3012.75,35.3,30.6,34.2,33.4,2.4
3015.0,35.4,31.2,34.7,33.7,2.2
3017.25,35.2,30.9,34.9,33.7,2.4
3019.5,34.9,31.5,34.7,33.7,1.9
3021.75,35.4,31.5,35.0,34.0,2.2
3024.0,35.4,32.0,34.9,34.1,1.9
3026.25,36.5,31.7,34.5,34.2,2.4
3028.5,36.1,31.3,34.1,33.9,2.4
3030.75,36.5,31.3,34.3,34.0,2.6
3033.0,37.1,31.0,34.7,34.3,3.1
3035.25,36.7,30.8,34.8,34.1,3.0
3037.5,35.8,31.4,34.9,34.0,2.3
3039.75,36.6,30.8,34.3,33.9,2.9
3042.0,35.8,31.1,34.7,33.9,2.5
3044.25,36.6,31.6,34.6,34.2,2.5
3046.5,36.3,31.8,34.9,34.3,2.3
3048.75,37.0,32.3,35.0,34.8,2.4
3051.0,36.7,31.7,35.0,34.5,2.5
3053.25,35.8,30.8,34.3,33.6,2.6
3055.5,35.8,31.4,34.5,33.9,2.2
3057.75,35.2,30.7,34.0,33.3,2.4
3060.0,36.3,30.5,33.3,33.4,2.9
3062.25,36.2,30.6,33.3,33.4,2.8
3064.5,36.4,31.0,33.8,33.7,2.7
3066.75,36.9,30.7,33.5,33.7,3.1
3069.0,36.6,30.2,33.2,33.3,3.2
3071.25,36.0,30.2,33.7,33.3,2.9
3073.5,36.6,31.3,33.5,33.8,2.7
3075.75,36.2,31.5,33.5,33.8,2.4
3078.0,36.4,31.5,34.1,34.0,2.5
3080.25,36.2,31.1,34.0,33.8,2.6
3082.5,35.8,30.5,33.6,33.3,2.7
3084.75,35.3,30.7,33.9,33.3,2.4
3087.0,34.5,31.0,33.2,32.9,1.8
3089.25,34.7,30.6,33.8,33.0,2.1
3091.5,34.5,30.6,33.9,33.0,2.1
3093.75,34.8,30.9,33.5,33.1,2.0
3096.0,34.7,31.2,33.5,33.1,1.8
3098.25,34.6,31.6,33.9,33.4,1.6
3100.5,34.6,31.1,33.6,33.1,1.8
3102.75,34.8,30.7,34.4,33.3,2.3
3105.0,35.0,30.8,33.4,33.1,2.2
3107.25,34.5,30.7,34.3,33.1,2.2
3109.5,35.2,30.5,33.8,33.2,2.4
3111.75,35.3,30.9,34.1,33.4,2.3
3114.0,34.9,31.0,33.8,33.2,2.0
3116.25,34.4,30.9,33.7,33.0,1.9
3118.5,34.7,30.7,34.4,33.3,2.2
3120.75,34.7,31.3,33.4,33.1,1.7
3123.0,35.1,30.5,33.5,33.0,2.3
3125.25,34.9,31.2,33.0,33.0,1.9
3127.5,35.0,31.3,33.1,33.1,1.8
3129.75,34.8,30.4,32.9,32.7,2.2
3132.0,34.7,30.0,32.8,32.5,2.4
3134.25,34.9,29.9,33.2,32.7,2.5
3136.5,35.1,29.4,33.0,32.5,2.9
3138.75,34.1,30.4,32.8,32.4,1.8
3141.0,34.2,30.4,33.1,32.5,2.0
3143.25,34.8,30.5,33.2,32.8,2.2
3145.5,35.4,30.8,33.7,33.3,2.4
3147.75,35.7,30.5,33.8,33.3,2.6
3150.0,36.2,30.0,33.5,33.2,3.1
3152.25,35.8,29.5,32.7,32.7,3.2
3154.5,35.5,30.3,32.8,32.9,2.6