File: 01_Data/Plastic_Laminate_Countertop/Cone/Plastic_Laminate_Countertop_HRRPUA_25.csv
Time after Ignition,Plastic_Laminate_Countertop_R1,Plastic_Laminate_Countertop_R2,Plastic_Laminate_Countertop_R3,Mean,Std. Dev.
0.0,7.5,12.0,16.8,12.1,4.6
4.0,7.7,19.6,20.8,16.0,7.2
8.0,7.2,24.9,24.6,18.9,10.1
12.0,6.1,25.6,29.9,20.6,12.7
16.0,5.1,24.8,33.5,21.1,14.6
20.0,6.1,23.3,39.8,23.1,16.8
24.0,7.4,21.2,45.6,24.7,19.3
28.0,7.2,18.6,49.9,25.2,22.1
32.0,5.4,14.6,54.1,24.7,25.9
36.0,3.5,12.3,56.6,24.1,28.5
40.0,2.5,10.3,61.7,24.8,32.2
44.0,3.0,8.4,66.9,26.1,35.4
48.0,3.0,6.9,70.3,26.7,37.8
52.0,2.4,5.7,74.4,27.5,40.7
56.0,2.3,4.7,77.8,28.3,43.0
60.0,2.3,3.2,80.8,28.8,45.1
64.0,2.2,1.1,82.7,28.7,46.8
68.0,3.3,0.4,84.3,29.3,47.6
72.0,2.5,0.3,85.0,29.3,48.3
76.0,2.3,0.2,85.1,29.2,48.4
80.0,2.3,0.7,85.9,29.6,48.8
84.0,2.4,0.1,84.9,29.1,48.3
88.0,2.4,0.8,83.0,28.8,47.0
92.0,2.4,3.4,83.3,29.7,46.4
96.0,1.9,5.2,82.3,29.8,45.5
100.0,2.3,4.1,84.0,30.1,46.7
104.0,2.4,2.0,85.2,29.9,47.9
108.0,0.9,0.2,86.3,29.1,49.5
112.0,0.4,-0.4,81.8,27.3,47.2
116.0,1.2,0.5,83.2,28.3,47.5
120.0,1.5,0.5,82.9,28.3,47.3
124.0,1.5,0.5,81.8,28.0,46.6
128.0,1.6,0.1,79.4,27.0,45.4
132.0,0.7,-0.0,79.6,26.8,45.7
136.0,0.5,0.4,79.4,26.8,45.6
140.0,1.3,0.5,76.7,26.2,43.8
144.0,2.4,-0.3,75.4,25.8,42.9
148.0,2.8,-1.0,73.7,25.2,42.1
152.0,4.7,-1.1,72.8,25.5,41.1
156.0,5.6,-1.1,69.8,24.8,39.1
160.0,4.7,-0.4,69.7,24.7,39.1
164.0,2.5,0.0,67.1,23.2,38.0
168.0,1.2,1.0,64.8,22.3,36.8
172.0,0.5,2.9,66.3,23.2,37.3
176.0,0.6,2.8,65.8,23.1,37.0
180.0,0.8,1.5,64.7,22.3,36.7
184.0,0.8,1.1,64.4,22.1,36.6
188.0,0.8,0.1,62.5,21.1,35.8
192.0,0.8,-0.3,61.7,20.7,35.5
196.0,0.8,-0.5,62.6,21.0,36.1
200.0,-0.1,-1.1,61.3,20.0,35.7
204.0,0.2,-1.8,59.8,19.4,35.0
208.0,0.6,-0.9,58.9,19.5,34.1
212.0,0.7,-0.6,59.5,19.8,34.3
216.0,0.7,-1.3,55.8,18.4,32.4
220.0,0.7,-1.1,55.5,18.3,32.2
224.0,0.9,-0.3,54.5,18.4,31.3
228.0,1.5,0.1,54.3,18.6,30.9
232.0,0.6,-0.2,53.3,17.9,30.7
236.0,0.4,-0.1,52.3,17.5,30.1
240.0,0.3,0.3,51.1,17.3,29.3
244.0,0.4,0.4,51.2,17.4,29.3
248.0,1.2,-0.3,51.1,17.3,29.2
252.0,1.1,-0.3,51.0,17.3,29.2
256.0,1.9,-0.1,49.4,17.1,28.0
260.0,3.1,0.1,50.0,17.7,28.0
264.0,4.2,-0.1,49.9,18.0,27.7
268.0,3.7,-0.2,49.8,17.7,27.8
272.0,6.7,-0.5,48.9,18.3,26.7
276.0,8.9,-0.2,47.8,18.8,25.5
280.0,10.6,-0.6,47.3,19.1,25.0
284.0,13.3,-0.3,47.8,20.3,24.8
288.0,17.8,1.0,47.5,22.1,23.6
292.0,20.3,1.2,47.3,22.9,23.1
296.0,24.8,1.2,46.5,24.2,22.6
300.0,28.8,1.3,46.0,25.3,22.6
304.0,31.8,1.2,46.3,26.4,23.0
308.0,35.4,0.3,46.5,27.4,24.1
312.0,38.9,-0.5,45.8,28.0,25.0
316.0,44.7,-0.7,45.1,29.7,26.3
320.0,48.0,-0.3,45.0,30.9,27.1
324.0,50.8,-0.2,45.4,32.0,28.0
328.0,52.5,-0.6,45.1,32.3,28.8
332.0,54.4,-0.7,44.6,32.8,29.4
336.0,56.1,0.1,44.9,33.7,29.7
340.0,57.5,0.4,45.0,34.3,30.0
344.0,59.2,1.4,45.2,35.3,30.1
348.0,59.9,1.1,45.9,35.7,30.7
352.0,62.2,1.9,45.4,36.5,31.1
356.0,63.7,0.9,44.9,36.5,32.2
360.0,65.3,0.4,45.6,37.1,33.3
364.0,66.0,-0.5,46.1,37.2,34.1
368.0,66.8,-0.6,45.5,37.3,34.4
372.0,68.2,-0.6,45.3,37.6,35.0
376.0,68.8,-0.8,45.6,37.9,35.4
380.0,70.9,0.4,46.4,39.2,35.8
384.0,71.5,1.9,46.1,39.8,35.2
388.0,72.6,4.6,46.5,41.3,34.3
392.0,72.4,6.1,45.8,41.4,33.4
396.0,74.6,6.5,46.3,42.5,34.2
400.0,74.2,6.4,46.9,42.5,34.1
404.0,73.0,6.5,46.9,42.2,33.5
408.0,74.0,7.1,45.7,42.3,33.6
412.0,73.8,7.7,45.7,42.4,33.2
416.0,72.9,7.9,45.1,42.0,32.6
420.0,73.6,8.7,45.6,42.6,32.6
424.0,73.5,9.5,45.9,43.0,32.1
428.0,72.8,10.8,47.3,43.6,31.2
432.0,71.4,11.3,47.8,43.5,30.3
436.0,71.2,11.4,47.8,43.5,30.2
440.0,70.3,11.3,47.8,43.2,29.8
444.0,71.1,11.2,47.6,43.3,30.2
448.0,68.0,10.4,47.6,42.0,29.2
452.0,67.7,10.1,47.6,41.8,29.2
456.0,67.0,10.6,47.5,41.7,28.6
460.0,65.8,11.2,47.2,41.4,27.8
464.0,65.8,15.0,47.9,42.9,25.8
468.0,63.5,18.6,47.0,43.0,22.7
472.0,62.9,20.3,49.4,44.2,21.8
476.0,61.3,21.9,48.6,43.9,20.1
480.0,59.2,22.1,48.5,43.3,19.1
484.0,56.2,23.8,47.8,42.6,16.8
488.0,54.8,26.0,47.7,42.8,15.0
492.0,53.8,27.2,47.9,43.0,14.0
496.0,54.0,30.4,47.7,44.1,12.2
500.0,51.8,34.0,47.1,44.3,9.2
504.0,51.5,35.4,46.7,44.6,8.3
508.0,51.0,37.1,46.3,44.8,7.1
512.0,49.3,37.7,47.6,44.9,6.3
516.0,49.2,38.1,48.6,45.3,6.2
520.0,48.0,38.4,48.2,44.9,5.6
524.0,47.0,39.7,49.8,45.5,5.2
528.0,45.2,39.6,49.5,44.8,5.0
532.0,44.8,40.3,50.7,45.3,5.2
536.0,46.6,41.3,50.5,46.1,4.6
540.0,44.2,44.3,50.5,46.3,3.6
544.0,43.0,46.6,49.3,46.3,3.2
548.0,40.4,46.3,50.0,45.6,4.8
552.0,39.9,47.4,50.7,46.0,5.5
556.0,39.2,46.1,50.5,45.3,5.7
560.0,40.4,46.4,50.7,45.8,5.2
564.0,39.6,47.1,50.9,45.9,5.8
568.0,39.7,46.5,50.5,45.5,5.5
572.0,39.5,46.7,50.4,45.5,5.5
576.0,39.3,45.8,50.3,45.2,5.5
580.0,38.8,46.6,50.6,45.3,6.0
584.0,38.8,47.6,50.2,45.5,6.0
588.0,38.3,45.9,50.9,45.1,6.3
592.0,38.6,44.7,50.7,44.6,6.0
596.0,39.3,44.3,50.8,44.8,5.8
600.0,39.6,43.7,51.5,44.9,6.1
604.0,39.4,43.2,51.3,44.7,6.1
608.0,40.2,43.1,50.7,44.7,5.4
612.0,40.6,42.8,51.7,45.0,5.9
616.0,40.7,41.1,50.7,44.1,5.6
620.0,40.0,40.3,49.8,43.4,5.5
624.0,40.7,40.2,49.0,43.3,4.9
628.0,40.0,40.4,49.7,43.4,5.5
632.0,40.0,39.5,49.9,43.1,5.8
636.0,40.5,40.1,50.4,43.7,5.8
640.0,41.1,41.0,51.2,44.4,5.8
644.0,41.6,39.4,50.3,43.7,5.8
648.0,42.0,40.8,50.0,44.3,5.0
652.0,42.0,40.3,50.2,44.2,5.3
656.0,42.6,40.7,50.2,44.5,5.0
660.0,43.0,40.5,50.9,44.8,5.4
664.0,42.2,40.5,51.1,44.6,5.7
668.0,41.7,39.0,50.6,43.8,6.1
672.0,41.6,39.6,51.0,44.1,6.1
676.0,42.4,37.9,50.9,43.7,6.6
680.0,42.5,36.8,50.1,43.1,6.7
684.0,42.1,35.8,49.5,42.5,6.9
688.0,41.5,36.2,50.4,42.7,7.2
692.0,41.3,35.6,50.3,42.4,7.4
696.0,41.1,35.8,50.3,42.4,7.4
700.0,40.9,36.3,51.0,42.7,7.5
704.0,40.5,36.2,50.9,42.5,7.6
708.0,41.0,36.5,49.7,42.4,6.7
712.0,42.6,38.1,50.3,43.7,6.1
716.0,41.5,37.3,50.0,42.9,6.5
720.0,41.0,37.6,50.3,43.0,6.6
724.0,42.0,37.0,48.7,42.6,5.9
728.0,42.7,36.4,48.3,42.5,6.0
732.0,42.5,36.5,48.3,42.4,5.9
736.0,42.5,35.4,49.1,42.3,6.8
740.0,42.2,35.7,48.3,42.1,6.3
744.0,41.9,35.8,48.1,42.0,6.1
748.0,42.4,36.2,48.5,42.4,6.1
752.0,42.5,36.0,48.2,42.3,6.1
756.0,43.0,35.7,48.1,42.3,6.2
760.0,43.5,35.2,48.3,42.3,6.6
764.0,45.0,35.2,49.2,43.1,7.2
768.0,44.5,34.1,47.9,42.2,7.2
772.0,43.7,33.9,47.7,41.8,7.1
776.0,43.4,33.9,47.1,41.5,6.8
780.0,42.9,32.8,46.9,40.9,7.2
784.0,42.1,33.2,47.4,40.9,7.2
788.0,41.7,32.5,47.7,40.6,7.7
792.0,42.2,31.7,47.8,40.5,8.2
796.0,44.6,32.0,48.5,41.7,8.6
800.0,43.5,32.2,48.2,41.3,8.2
804.0,43.4,32.5,47.2,41.0,7.6
808.0,43.2,32.4,47.8,41.1,7.9
812.0,43.4,32.4,47.3,41.0,7.7
816.0,43.6,31.9,47.9,41.2,8.3
820.0,43.8,31.5,47.7,41.0,8.5
824.0,43.5,30.8,46.7,40.3,8.4
828.0,44.1,30.7,47.4,40.7,8.8
832.0,44.5,30.3,47.2,40.7,9.1
836.0,45.1,30.3,46.5,40.7,9.0
840.0,44.8,29.6,46.5,40.3,9.3
844.0,44.5,29.5,47.0,40.3,9.5
848.0,44.8,29.5,46.9,40.4,9.5
852.0,45.7,29.3,46.5,40.5,9.7
856.0,45.2,28.5,46.0,39.9,9.9
860.0,44.4,27.7,46.3,39.5,10.3
864.0,46.1,29.3,46.2,40.5,9.7
868.0,45.8,30.1,46.8,40.9,9.4
872.0,44.6,30.1,46.1,40.3,8.9
876.0,44.6,30.0,45.2,39.9,8.6
880.0,44.6,30.3,45.8,40.2,8.6
884.0,44.4,29.8,47.2,40.5,9.3
888.0,44.0,28.8,46.7,39.8,9.6
892.0,43.8,29.5,46.6,40.0,9.2
896.0,44.4,29.3,46.8,40.2,9.5
900.0,44.1,28.3,46.9,39.8,10.0
904.0,45.3,28.8,47.4,40.5,10.1
908.0,46.0,29.0,45.4,40.1,9.7
912.0,44.9,28.7,46.9,40.2,10.0
916.0,45.8,28.1,45.8,39.9,10.2
920.0,44.9,27.8,45.3,39.3,10.0
924.0,45.6,28.3,45.1,39.7,9.8
928.0,46.1,28.2,44.0,39.4,9.8
932.0,45.4,27.7,42.8,38.6,9.6
936.0,45.8,27.8,43.1,38.9,9.7
940.0,46.4,28.6,41.8,38.9,9.3
944.0,45.7,28.4,41.8,38.6,9.1
948.0,45.2,27.8,42.2,38.4,9.3
952.0,44.1,29.1,42.3,38.5,8.2
956.0,44.3,28.7,42.9,38.6,8.6
960.0,44.5,27.9,42.8,38.4,9.1
964.0,46.5,28.8,42.7,39.3,9.3
968.0,45.9,29.0,41.7,38.9,8.8
972.0,46.2,28.7,42.6,39.2,9.2
976.0,46.1,29.0,42.7,39.2,9.1
980.0,46.0,27.9,43.4,39.1,9.8
984.0,44.4,28.3,42.2,38.3,8.7
988.0,45.1,27.8,41.1,38.0,9.0
992.0,45.1,28.1,42.1,38.4,9.1
996.0,44.9,27.7,41.9,38.2,9.2
1000.0,44.8,28.3,40.7,37.9,8.6
1004.0,45.3,28.5,39.6,37.8,8.5
1008.0,44.3,28.8,39.5,37.5,7.9
1012.0,44.1,29.2,38.3,37.2,7.5
1016.0,43.8,28.6,38.0,36.8,7.6
1020.0,43.9,29.1,38.5,37.2,7.5
1024.0,42.9,28.4,37.9,36.4,7.4
1028.0,43.0,28.2,36.7,36.0,7.4
1032.0,43.1,27.3,36.8,35.7,7.9
1036.0,43.4,27.7,36.9,36.0,7.9
1040.0,43.0,28.0,37.5,36.2,7.6
1044.0,43.9,27.1,38.3,36.5,8.6
1048.0,44.4,29.0,38.8,37.4,7.8
1052.0,44.0,29.4,38.9,37.4,7.4
1056.0,43.0,30.4,38.6,37.3,6.4
1060.0,44.0,29.6,38.6,37.4,7.3
1064.0,43.5,29.4,38.4,37.1,7.1
1068.0,43.2,28.8,38.2,36.8,7.3
1072.0,43.4,28.1,39.3,36.9,7.9
1076.0,43.1,27.1,39.4,36.6,8.4
1080.0,42.3,26.8,40.5,36.5,8.5
1084.0,42.4,26.6,38.6,35.9,8.3
1088.0,41.8,26.3,37.9,35.3,8.0
1092.0,42.5,27.5,39.2,36.4,7.9
1096.0,41.8,28.6,39.1,36.5,7.0
1100.0,42.5,28.0,39.2,36.6,7.6
1104.0,43.2,27.9,38.6,36.6,7.8
1108.0,43.2,28.1,39.5,36.9,7.9
1112.0,43.2,28.4,38.6,36.7,7.6
1116.0,42.0,27.5,38.3,36.0,7.5
1120.0,42.2,28.3,37.8,36.1,7.1
1124.0,42.0,28.7,37.0,35.9,6.7
1128.0,42.0,28.7,36.6,35.8,6.7
1132.0,41.6,28.8,36.6,35.6,6.4
1136.0,42.1,27.3,36.5,35.3,7.5
1140.0,42.5,26.8,35.6,34.9,7.9
1144.0,42.4,26.7,35.8,35.0,7.9
1148.0,41.4,26.6,35.2,34.4,7.4
1152.0,40.4,26.8,35.6,34.3,6.9
1156.0,39.9,26.4,35.2,33.8,6.9
1160.0,38.9,26.9,35.1,33.6,6.1
1164.0,40.1,27.5,35.0,34.2,6.3
1168.0,39.7,28.0,35.0,34.2,5.9
1172.0,41.1,27.8,34.1,34.3,6.6
1176.0,41.2,28.0,34.1,34.4,6.6
1180.0,41.7,27.6,34.1,34.5,7.1
1184.0,41.7,27.3,34.5,34.5,7.2
1188.0,41.8,28.3,34.8,35.0,6.8
1192.0,41.4,28.8,33.6,34.6,6.4
1196.0,40.3,28.5,32.8,33.9,6.0
1200.0,40.9,27.5,32.6,33.6,6.8
1204.0,40.6,27.3,33.1,33.7,6.7
1208.0,39.8,26.9,33.1,33.3,6.5
1212.0,39.6,27.0,33.6,33.4,6.3
1216.0,39.7,27.3,34.4,33.8,6.3
1220.0,39.0,26.4,33.7,33.1,6.3
1224.0,39.6,26.9,33.7,33.4,6.4
1228.0,39.3,27.0,33.3,33.2,6.1
1232.0,38.9,27.2,33.7,33.3,5.9
1236.0,37.9,27.4,34.3,33.2,5.4
1240.0,38.2,27.3,33.8,33.1,5.5
1244.0,38.8,26.5,32.1,32.5,6.1
1248.0,39.6,26.9,33.5,33.3,6.3
1252.0,39.5,27.2,33.1,33.3,6.2
1256.0,39.1,26.7,31.9,32.6,6.3
1260.0,39.8,27.2,30.5,32.5,6.5
1264.0,40.3,27.5,30.4,32.7,6.7
1268.0,39.4,26.8,30.4,32.2,6.5
1272.0,38.3,26.9,30.6,31.9,5.8
1276.0,39.0,26.7,30.2,32.0,6.3
1280.0,39.2,27.4,29.6,32.1,6.2
1284.0,39.7,27.3,30.1,32.4,6.5
1288.0,38.7,27.3,29.6,31.9,6.0
1292.0,39.0,27.2,29.6,31.9,6.2
1296.0,39.4,28.2,28.3,32.0,6.4
1300.0,39.2,27.3,28.0,31.5,6.6
1304.0,39.1,26.8,28.7,31.5,6.6
1308.0,40.2,26.6,28.1,31.6,7.4
1312.0,39.1,26.7,27.6,31.1,6.9
1316.0,39.6,26.8,28.5,31.6,6.9
1320.0,40.0,26.7,28.0,31.6,7.3
1324.0,39.8,26.7,27.3,31.3,7.4
1328.0,39.9,27.1,28.0,31.7,7.2
1332.0,39.6,27.3,28.1,31.7,6.9
1336.0,38.6,26.9,28.2,31.2,6.4
1340.0,39.2,26.6,27.8,31.2,6.9
1344.0,38.2,25.8,28.0,30.7,6.6
1348.0,38.4,26.4,28.2,31.0,6.4
1352.0,38.4,25.5,27.9,30.6,6.9
1356.0,38.2,25.5,27.5,30.4,6.8
1360.0,39.1,26.0,26.0,30.4,7.5
1364.0,39.1,25.9,26.1,30.4,7.5
1368.0,39.8,25.8,26.2,30.6,8.0
1372.0,39.4,26.4,25.3,30.4,7.8
1376.0,38.6,26.2,25.0,29.9,7.6
1380.0,38.6,26.5,25.7,30.2,7.3
1384.0,38.8,26.2,26.7,30.5,7.2
1388.0,38.1,26.2,27.5,30.6,6.5
1392.0,38.1,25.3,26.8,30.1,7.0
1396.0,39.1,24.0,26.9,30.0,8.0
1400.0,38.9,23.5,26.6,29.7,8.1
1404.0,39.2,23.6,27.2,30.0,8.2
1408.0,38.1,24.4,26.6,29.7,7.3
1412.0,37.6,23.9,25.6,29.0,7.5
1416.0,38.0,24.3,25.8,29.4,7.5
1420.0,37.1,24.9,26.5,29.5,6.6
1424.0,36.0,24.4,26.7,29.0,6.1
1428.0,35.9,24.8,26.6,29.1,6.0
1432.0,36.0,24.7,26.4,29.0,6.1
1436.0,36.1,24.3,25.3,28.6,6.5
1440.0,35.5,24.7,25.7,28.6,5.9
1444.0,35.1,24.6,26.6,28.7,5.6
1448.0,35.0,24.6,25.4,28.3,5.8
1452.0,34.7,24.3,25.1,28.0,5.8
1456.0,35.4,24.4,24.2,28.0,6.4
1460.0,35.9,24.8,24.1,28.2,6.6
1464.0,35.4,24.2,24.7,28.1,6.3
1468.0,35.3,24.7,24.6,28.2,6.2
1472.0,35.8,25.6,25.2,28.9,6.0
1476.0,35.2,26.4,24.6,28.7,5.7
1480.0,34.3,26.3,24.0,28.2,5.4
1484.0,34.5,26.0,24.4,28.3,5.5
1488.0,34.2,27.3,22.6,28.0,5.8
1492.0,33.5,26.9,22.7,27.7,5.4
1496.0,33.6,27.8,22.5,28.0,5.5
1500.0,33.5,27.7,23.0,28.1,5.3
1504.0,34.2,28.2,22.3,28.2,5.9
1508.0,34.8,27.4,23.0,28.4,6.0
1512.0,34.7,27.7,23.6,28.7,5.6
1516.0,35.3,27.6,23.5,28.8,6.0
1520.0,34.2,27.9,24.4,28.8,5.0
1524.0,33.5,27.1,23.7,28.1,4.9
1528.0,33.3,27.6,24.3,28.4,4.6
1532.0,34.5,27.9,24.8,29.1,4.9
1536.0,34.3,27.9,25.4,29.2,4.6
1540.0,34.3,28.0,25.7,29.4,4.4
1544.0,34.1,28.2,25.5,29.3,4.4
1548.0,34.2,27.8,24.7,28.9,4.8
1552.0,33.8,27.9,25.5,29.1,4.3
1556.0,34.1,28.1,26.3,29.5,4.0
1560.0,34.3,27.6,26.4,29.4,4.3
1564.0,33.3,27.9,26.3,29.2,3.7
1568.0,32.7,27.8,26.1,28.9,3.4
1572.0,33.2,28.0,26.5,29.2,3.5
1576.0,32.8,29.1,25.4,29.1,3.7
1580.0,32.6,28.4,25.5,28.8,3.6
1584.0,31.7,29.1,25.9,28.9,2.9
1588.0,31.9,29.5,26.8,29.4,2.5
1592.0,32.7,29.9,26.6,29.7,3.1
1596.0,32.4,29.4,27.3,29.7,2.6
1600.0,32.9,29.5,26.2,29.5,3.3
1604.0,32.7,30.3,26.5,29.8,3.2
1608.0,32.7,30.7,26.2,29.9,3.3
1612.0,32.7,31.1,26.8,30.2,3.1
1616.0,30.2,31.2,26.0,29.1,2.8
1620.0,29.8,30.2,25.4,28.5,2.7
1624.0,28.6,30.1,24.8,27.9,2.8
1628.0,29.3,29.6,24.9,27.9,2.6
1632.0,29.9,29.7,23.8,27.8,3.4
1636.0,29.6,29.6,24.4,27.9,3.0
1640.0,28.5,29.6,24.4,27.5,2.7
1644.0,28.4,30.1,24.2,27.6,3.1
1648.0,28.2,30.5,25.1,28.0,2.7
1652.0,29.1,30.4,27.2,28.9,1.6
1656.0,28.2,30.7,28.7,29.2,1.3
1660.0,29.0,32.2,30.0,30.4,1.6
1664.0,28.4,32.1,30.8,30.4,1.9
1668.0,28.6,31.5,31.1,30.4,1.6
1672.0,28.0,31.9,30.9,30.3,2.0
1676.0,27.6,32.7,29.5,29.9,2.6
1680.0,28.4,32.5,28.6,29.9,2.3
1684.0,29.0,33.0,27.9,30.0,2.7
1688.0,29.9,33.0,28.5,30.5,2.3
1692.0,28.7,32.9,28.7,30.1,2.5
1696.0,28.3,31.9,29.8,30.0,1.8
1700.0,28.8,32.2,29.0,30.0,1.9
1704.0,28.1,32.1,30.7,30.3,2.0
1708.0,27.4,32.5,29.8,29.9,2.5
1712.0,26.4,32.2,29.2,29.2,2.9
1716.0,25.5,32.0,28.8,28.8,3.2
1720.0,23.8,32.1,28.5,28.1,4.1
1724.0,23.3,32.4,28.7,28.2,4.6
1728.0,23.2,32.4,28.4,28.0,4.6
1732.0,25.2,32.8,27.5,28.5,3.9
1736.0,25.5,33.3,29.6,29.5,3.9
1740.0,25.6,33.0,29.1,29.2,3.7
1744.0,25.5,32.0,29.1,28.9,3.2
1748.0,24.5,30.8,28.7,28.0,3.2
1752.0,24.5,30.9,29.9,28.4,3.4
1756.0,24.9,31.4,30.7,29.0,3.5
1760.0,25.3,31.2,30.2,28.9,3.2
1764.0,25.2,31.0,30.4,28.9,3.2
1768.0,25.0,32.3,31.0,29.4,3.9
1772.0,25.2,31.5,30.0,28.9,3.3
1776.0,25.0,31.0,29.7,28.6,3.1
1780.0,24.4,30.0,29.4,27.9,3.1
1784.0,24.7,29.7,30.4,28.3,3.1
1788.0,24.1,30.5,30.1,28.2,3.6
1792.0,24.2,30.0,29.5,27.9,3.2
1796.0,25.1,29.9,29.8,28.2,2.7
1800.0,25.6,30.5,30.6,28.9,2.9
1804.0,25.5,30.7,31.1,29.1,3.1
1808.0,25.8,30.1,31.6,29.2,3.0
1812.0,26.0,29.7,31.1,28.9,2.6
1816.0,25.2,28.9,30.4,28.2,2.7
1820.0,24.0,29.2,31.1,28.1,3.7
1824.0,22.6,30.0,32.0,28.2,5.0
1828.0,22.5,30.5,32.9,28.6,5.4
1832.0,23.0,29.7,32.2,28.3,4.7
1836.0,24.5,29.8,31.0,28.4,3.5
1840.0,24.7,31.2,30.7,28.9,3.6
1844.0,24.9,31.1,31.6,29.2,3.8
1848.0,24.0,30.4,32.2,28.9,4.3
1852.0,23.7,30.1,31.6,28.5,4.2
1856.0,23.8,31.5,32.2,29.2,4.7
1860.0,25.9,31.8,33.2,30.3,3.9
1864.0,25.7,31.2,34.3,30.4,4.4
1868.0,24.8,31.1,33.7,29.9,4.6
1872.0,23.8,31.5,34.4,29.9,5.4
1876.0,22.4,30.9,33.5,28.9,5.8
1880.0,20.5,30.5,33.1,28.0,6.6
1884.0,20.5,30.3,33.5,28.1,6.8
1888.0,21.1,29.9,33.4,28.1,6.4
1892.0,20.9,30.1,34.1,28.4,6.8
1896.0,20.4,30.9,33.5,28.2,6.9
1900.0,21.1,31.6,33.2,28.7,6.6
1904.0,21.3,31.1,32.6,28.3,6.1
1908.0,22.4,30.4,32.5,28.4,5.3
1912.0,23.6,30.3,32.6,28.8,4.7
1916.0,23.4,29.8,31.5,28.2,4.2
1920.0,20.7,29.1,31.7,27.2,5.8
1924.0,19.1,29.9,32.2,27.1,7.0
1928.0,18.3,30.3,33.6,27.4,8.0
1932.0,18.4,30.4,33.3,27.4,7.9
1936.0,20.0,30.2,33.0,27.8,6.8
1940.0,20.2,29.7,32.8,27.6,6.6
1944.0,19.7,29.3,31.9,27.0,6.4
1948.0,20.4,29.4,32.8,27.5,6.4
1952.0,20.8,29.7,31.9,27.4,5.9
1956.0,21.0,28.8,32.1,27.3,5.7
1960.0,21.0,28.0,32.1,27.0,5.6
1964.0,21.4,27.9,31.9,27.1,5.3
1968.0,19.6,28.8,32.1,26.8,6.5
1972.0,19.5,29.0,32.6,27.0,6.7
1976.0,19.4,28.2,34.2,27.3,7.4
1980.0,19.7,27.8,33.4,27.0,6.9
1984.0,19.8,28.0,32.3,26.7,6.4
1988.0,19.8,27.1,32.6,26.5,6.4
1992.0,19.4,26.7,33.5,26.5,7.1
1996.0,19.2,26.3,33.5,26.4,7.1
2000.0,19.7,26.1,33.2,26.3,6.7
2004.0,20.4,26.0,32.8,26.4,6.2
2008.0,21.5,26.0,34.1,27.2,6.4
2012.0,21.7,26.0,34.5,27.4,6.5
2016.0,21.2,25.8,34.4,27.1,6.7
2020.0,22.2,25.5,35.3,27.7,6.8
2024.0,22.0,24.9,34.7,27.2,6.7
2028.0,21.7,25.0,35.4,27.4,7.2
2032.0,22.4,24.6,35.6,27.5,7.1
2036.0,22.8,25.0,35.9,27.9,7.0
2040.0,22.8,24.2,35.4,27.5,7.0
2044.0,22.1,22.5,34.5,26.3,7.1
2048.0,23.6,22.8,34.3,26.9,6.4
2052.0,25.8,23.2,34.5,27.8,5.9
2056.0,25.5,22.2,34.7,27.4,6.5
2060.0,24.9,23.4,34.4,27.6,6.0
2064.0,25.6,22.7,34.7,27.7,6.3
2068.0,26.4,22.7,34.8,28.0,6.2
2072.0,25.6,23.3,35.2,28.0,6.3
2076.0,24.4,22.7,35.5,27.5,7.0
2080.0,24.6,23.4,35.8,27.9,6.8
2084.0,25.0,23.8,35.2,28.0,6.3
2088.0,24.1,23.4,35.9,27.8,7.0
2092.0,23.8,23.0,37.0,27.9,7.9
2096.0,23.2,23.1,36.5,27.6,7.7
2100.0,23.1,22.5,36.7,27.4,8.1
2104.0,23.7,22.2,36.9,27.6,8.0
2108.0,23.6,23.5,37.2,28.1,7.9
2112.0,22.9,23.3,36.8,27.6,7.9
2116.0,23.2,23.8,36.3,27.8,7.4
2120.0,23.2,23.9,35.7,27.6,7.1
2124.0,23.8,23.0,36.0,27.6,7.3
2128.0,23.8,23.1,37.0,28.0,7.8
2132.0,24.4,21.3,38.0,27.9,8.9
2136.0,24.1,21.0,36.5,27.2,8.2
2140.0,23.7,20.8,36.7,27.1,8.4
2144.0,23.6,20.9,35.9,26.8,8.0
2148.0,23.9,21.9,35.4,27.0,7.3
2152.0,24.5,22.1,35.7,27.4,7.2
2156.0,23.9,21.7,36.4,27.3,8.0
2160.0,23.5,21.2,37.2,27.3,8.7
2164.0,23.3,21.0,37.5,27.3,8.9
2168.0,23.3,21.3,38.1,27.6,9.2
2172.0,23.3,22.1,37.1,27.5,8.4
2176.0,22.9,21.9,37.5,27.4,8.8
2180.0,23.6,21.8,38.6,28.0,9.2
2184.0,23.5,22.1,39.2,28.2,9.5
2188.0,24.0,22.2,38.1,28.1,8.7
2192.0,24.7,22.2,38.2,28.4,8.6
2196.0,23.9,22.1,38.7,28.2,9.1
2200.0,23.0,21.8,38.8,27.9,9.5
2204.0,23.3,21.7,39.0,28.0,9.5
2208.0,22.5,22.0,39.6,28.0,10.0
2212.0,22.6,21.7,40.9,28.4,10.8
2216.0,22.5,21.8,40.8,28.4,10.8
2220.0,23.8,21.7,40.7,28.7,10.4
2224.0,24.1,21.5,40.0,28.5,10.0
2228.0,23.9,21.8,39.6,28.4,9.7
2232.0,24.2,21.5,40.0,28.6,10.0
2236.0,24.6,21.4,38.8,28.3,9.3
2240.0,24.8,21.2,38.9,28.3,9.4
2244.0,24.9,21.0,39.6,28.5,9.8
2248.0,25.0,22.0,40.3,29.1,9.9
2252.0,25.2,21.7,39.5,28.8,9.4
2256.0,24.8,22.0,39.4,28.7,9.3
2260.0,23.8,21.8,40.4,28.7,10.2
2264.0,23.0,22.4,40.1,28.5,10.1
2268.0,21.7,21.7,39.7,27.7,10.4
2272.0,22.3,21.6,40.7,28.2,10.9
2276.0,22.3,21.7,41.8,28.6,11.4
2280.0,23.0,22.2,42.9,29.4,11.7
2284.0,22.8,22.1,42.6,29.2,11.6
2288.0,23.1,22.3,44.8,30.1,12.8
2292.0,23.1,22.4,44.4,30.0,12.5
2296.0,22.7,22.7,44.8,30.1,12.8
2300.0,23.7,22.6,44.9,30.4,12.6
2304.0,23.8,22.7,44.5,30.3,12.3
2308.0,23.1,22.4,45.2,30.2,12.9
2312.0,23.4,22.7,44.2,30.1,12.2
2316.0,24.0,21.2,45.0,30.1,13.0
2320.0,23.7,20.3,45.4,29.8,13.6
2324.0,23.9,20.7,45.3,29.9,13.4
2328.0,22.8,21.0,45.8,29.9,13.8
2332.0,22.1,21.5,44.2,29.2,12.9
2336.0,22.2,21.6,45.0,29.6,13.3
2340.0,24.3,22.7,45.4,30.8,12.7
2344.0,25.5,22.9,45.7,31.4,12.5
2348.0,25.5,23.2,45.4,31.4,12.2
2352.0,23.9,22.7,45.8,30.8,13.0
2356.0,23.7,22.0,46.3,30.7,13.6
2360.0,23.8,21.5,47.3,30.9,14.3
2364.0,23.9,22.2,46.8,30.9,13.7
2368.0,24.1,23.6,47.8,31.8,13.9
2372.0,23.4,23.5,48.6,31.8,14.5
2376.0,24.0,22.3,50.0,32.1,15.5
2380.0,24.2,21.1,50.2,31.8,16.0
2384.0,25.2,19.9,49.9,31.7,16.0
2388.0,25.7,20.6,50.2,32.2,15.8
2392.0,25.4,21.3,48.5,31.7,14.6
2396.0,24.7,22.4,49.9,32.3,15.2
2400.0,25.2,22.8,52.5,33.5,16.5
2404.0,26.2,23.3,53.5,34.3,16.7
2408.0,28.7,23.2,54.2,35.4,16.6
2412.0,28.3,23.4,55.8,35.8,17.5
2416.0,28.0,23.6,56.4,36.0,17.8
2420.0,26.5,23.6,57.6,35.9,18.8
2424.0,23.7,23.7,56.2,34.5,18.8
2428.0,22.4,22.5,58.4,34.4,20.7
2432.0,21.3,21.5,58.4,33.7,21.4
2436.0,22.4,21.6,58.8,34.2,21.2
2440.0,22.9,21.5,59.1,34.5,21.3
2444.0,23.2,21.3,58.9,34.4,21.2
2448.0,23.3,21.4,59.1,34.6,21.2
2452.0,24.0,21.9,60.4,35.5,21.7
2456.0,24.5,22.1,60.6,35.8,21.6
2460.0,25.1,21.2,59.7,35.3,21.2
2464.0,25.9,21.1,58.7,35.2,20.5
2468.0,25.1,21.7,59.4,35.4,20.9
2472.0,25.0,22.3,59.6,35.6,20.8
2476.0,25.1,21.6,59.8,35.5,21.2
2480.0,25.2,22.3,60.5,36.0,21.3
2484.0,25.7,23.7,61.7,37.0,21.4
2488.0,26.0,23.8,62.5,37.4,21.7
2492.0,27.7,23.7,62.4,37.9,21.3
2496.0,29.2,22.3,62.4,38.0,21.4
2500.0,30.2,22.7,62.8,38.6,21.3
2504.0,30.1,23.6,63.3,39.0,21.3
2508.0,30.1,24.3,63.5,39.3,21.1
2512.0,29.7,23.3,64.3,39.1,22.1
2516.0,29.8,23.2,64.4,39.1,22.1
2520.0,28.8,23.0,65.0,39.0,22.8
2524.0,28.6,23.5,65.9,39.3,23.1
2528.0,30.0,23.1,64.3,39.1,22.1
2532.0,30.9,23.0,63.7,39.2,21.5
2536.0,31.0,23.7,63.3,39.3,21.0
2540.0,30.4,24.4,64.6,39.8,21.7
2544.0,30.5,24.6,64.7,39.9,21.6
2548.0,31.4,24.1,65.0,40.2,21.8
2552.0,31.5,24.1,65.1,40.2,21.8
2556.0,31.6,23.5,65.9,40.3,22.5
2560.0,31.5,23.5,66.3,40.4,22.8
2564.0,31.8,23.8,65.9,40.5,22.3
2568.0,31.5,23.6,66.5,40.5,22.8
2572.0,32.7,23.9,67.4,41.3,23.0
2576.0,32.5,24.1,66.7,41.1,22.6
2580.0,33.7,23.7,67.7,41.7,23.1
2584.0,34.7,23.6,66.9,41.7,22.5
2588.0,33.5,23.7,65.4,40.8,21.8
2592.0,33.9,24.7,67.3,42.0,22.4
2596.0,34.4,24.6,67.4,42.1,22.4
2600.0,36.4,24.3,68.5,43.1,22.9
2604.0,36.9,24.5,68.8,43.4,22.9
2608.0,37.9,25.2,69.6,44.3,22.9
2612.0,39.1,25.6,69.5,44.7,22.4
2616.0,39.6,25.2,69.4,44.7,22.5
2620.0,40.5,24.1,70.7,45.1,23.7
2624.0,39.9,23.8,70.9,44.9,23.9
2628.0,41.0,23.8,69.9,44.9,23.3
2632.0,43.1,24.4,69.7,45.7,22.7
2636.0,43.2,23.3,71.3,46.0,24.1
2640.0,42.9,24.5,71.0,46.1,23.4
2644.0,42.1,25.2,70.5,45.9,22.9
2648.0,41.5,25.2,70.2,45.6,22.8
2652.0,42.3,25.2,69.6,45.7,22.4
2656.0,43.3,25.1,70.0,46.1,22.5
2660.0,44.4,25.0,70.6,46.7,22.9
2664.0,44.5,24.8,72.4,47.2,23.9
2668.0,43.4,25.4,70.5,46.4,22.7
2672.0,44.6,25.3,71.8,47.2,23.4
2676.0,45.9,25.2,71.2,47.4,23.1
2680.0,45.3,25.2,70.8,47.1,22.8
2684.0,45.4,25.9,70.8,47.4,22.5
2688.0,46.2,25.2,69.9,47.1,22.3
2692.0,47.9,24.1,71.2,47.7,23.5
2696.0,49.3,24.9,72.5,48.9,23.8
2700.0,48.1,25.9,73.8,49.3,24.0
2704.0,48.4,25.3,72.6,48.8,23.7
2708.0,48.4,25.9,73.9,49.4,24.0
2712.0,49.4,26.3,75.8,50.5,24.8
2716.0,49.2,26.3,74.1,49.9,23.9
2720.0,48.8,26.3,74.0,49.7,23.9
2724.0,48.2,26.3,73.2,49.3,23.5
2728.0,49.6,27.3,74.2,50.4,23.4
2732.0,49.8,27.1,73.9,50.3,23.4
2736.0,49.7,26.5,74.1,50.1,23.8
2740.0,49.9,26.1,74.9,50.3,24.4
2744.0,50.6,26.4,75.0,50.7,24.3
2748.0,50.3,26.3,76.2,50.9,24.9
2752.0,50.4,26.4,76.3,51.0,25.0
2756.0,51.1,27.9,74.9,51.3,23.5
2760.0,52.5,29.7,74.8,52.3,22.5
2764.0,54.5,29.8,74.3,52.9,22.3
2768.0,52.6,30.4,75.0,52.7,22.3
2772.0,51.7,30.0,75.0,52.2,22.5
2776.0,52.7,29.2,74.6,52.2,22.7
2780.0,53.6,29.6,73.5,52.2,22.0
2784.0,53.3,29.7,74.3,52.4,22.3
2788.0,52.9,29.9,73.9,52.2,22.0
2792.0,53.4,29.7,75.4,52.8,22.9
2796.0,52.7,30.1,74.6,52.5,22.2
2800.0,52.6,30.2,74.4,52.4,22.1
2804.0,53.2,30.4,71.1,51.6,20.4
2808.0,53.0,30.0,72.3,51.8,21.2
2812.0,54.3,30.8,72.5,52.5,20.9
2816.0,53.2,30.5,71.8,51.8,20.7
2820.0,54.2,30.3,72.5,52.3,21.2
2824.0,54.2,30.0,71.2,51.8,20.7
2828.0,54.1,31.1,72.9,52.7,20.9
2832.0,55.1,31.1,71.0,52.4,20.1
2836.0,56.1,30.8,71.2,52.7,20.4
2840.0,53.6,31.1,71.4,52.0,20.2
2844.0,55.1,31.3,71.0,52.4,20.0
2848.0,54.2,31.0,70.5,51.9,19.9
2852.0,53.6,31.1,70.7,51.8,19.9
2856.0,53.5,32.0,72.7,52.7,20.3
2860.0,54.3,32.0,73.1,53.1,20.5
2864.0,54.9,33.1,73.2,53.7,20.0
2868.0,55.4,32.9,73.5,54.0,20.3
2872.0,55.4,33.8,72.0,53.7,19.2
2876.0,56.1,33.9,71.2,53.7,18.8
2880.0,57.1,34.1,71.3,54.1,18.8
2884.0,57.4,35.0,71.4,54.6,18.4
2888.0,57.5,35.3,70.2,54.3,17.7
2892.0,56.9,34.4,70.0,53.8,18.0
2896.0,58.4,34.4,69.8,54.2,18.0
2900.0,57.2,34.3,71.5,54.3,18.8
2904.0,59.8,33.9,72.1,55.2,19.5
2908.0,58.6,33.8,73.1,55.2,19.9
2912.0,56.9,33.9,72.4,54.4,19.4
2916.0,58.1,35.8,71.7,55.2,18.1
2920.0,58.7,35.3,72.8,55.6,18.9
2924.0,59.4,34.7,71.7,55.3,18.9
2928.0,60.1,35.9,70.2,55.4,17.6
2932.0,61.5,36.0,69.3,55.6,17.4
2936.0,62.2,36.1,70.2,56.2,17.9
2940.0,62.9,35.8,68.4,55.7,17.5
2944.0,64.9,35.0,69.2,56.4,18.7
2948.0,65.3,34.9,69.5,56.6,18.9
2952.0,64.4,35.8,70.1,56.8,18.4
2956.0,63.9,35.8,69.6,56.5,18.1
2960.0,64.9,35.2,67.2,55.8,17.9
2964.0,66.9,36.0,,51.5,21.9
2968.0,67.3,35.7,,51.5,22.4
2972.0,67.7,35.8,,51.7,22.6
2976.0,68.3,36.9,,52.6,22.2
2980.0,68.1,37.6,,52.8,21.6
2984.0,69.0,37.3,,53.2,22.4
2988.0,70.3,37.9,,54.1,22.9
2992.0,69.1,37.5,,53.3,22.3
2996.0,69.4,37.4,,53.4,22.6
3000.0,69.1,37.8,,53.4,22.2
3004.0,70.9,38.5,,54.7,22.9
3008.0,71.5,38.9,,55.2,23.1
3012.0,70.7,39.2,,55.0,22.3
3016.0,70.6,39.1,,54.9,22.3
3020.0,70.6,39.4,,55.0,22.1
3024.0,69.7,39.1,,54.4,21.7
3028.0,69.5,38.3,,53.9,22.1
3032.0,71.8,37.9,,54.8,24.0
3036.0,70.9,39.6,,55.2,22.2
3040.0,72.3,40.5,,56.4,22.5
3044.0,71.4,40.4,,55.9,21.9
3048.0,72.8,40.2,,56.5,23.1
3052.0,71.8,39.9,,55.9,22.6
3056.0,72.7,40.8,,56.8,22.6
3060.0,74.0,40.6,,57.3,23.6
3064.0,74.1,40.0,,57.0,24.1
3068.0,72.9,40.7,,56.8,22.7
3072.0,72.1,40.5,,56.3,22.3
3076.0,71.3,40.7,,56.0,21.7
3080.0,71.7,41.9,,56.8,21.1
3084.0,72.7,42.0,,57.4,21.7
3088.0,71.9,42.1,,57.0,21.1
3092.0,70.8,43.4,,57.1,19.4
3096.0,74.2,42.5,,58.4,22.5
3100.0,73.6,43.2,,58.4,21.5
3104.0,72.9,43.4,,58.2,20.8
3108.0,71.6,42.8,,57.2,20.4
3112.0,71.9,43.6,,57.8,20.0
3116.0,71.1,43.7,,57.4,19.4
3120.0,70.6,43.4,,57.0,19.3
3124.0,71.5,44.6,,58.1,19.0
3128.0,70.9,47.0,,59.0,16.9
3132.0,72.8,48.0,,60.4,17.6
3136.0,70.9,46.7,,58.8,17.1
3140.0,72.4,46.5,,59.4,18.3
3144.0,71.7,47.9,,59.8,16.8
3148.0,71.5,48.5,,60.0,16.3
3152.0,70.8,47.6,,59.2,16.4
3156.0,70.4,48.2,,59.3,15.7
3160.0,70.5,47.1,,58.8,16.6
3164.0,72.0,47.2,,59.6,17.6
3168.0,70.9,47.2,,59.0,16.7
3172.0,70.6,47.8,,59.2,16.1
3176.0,69.8,48.3,,59.1,15.3
3180.0,71.8,49.0,,60.4,16.1
3184.0,70.0,49.8,,59.9,14.3
3188.0,70.5,50.9,,60.7,13.9
3192.0,69.8,49.7,,59.8,14.2
3196.0,69.0,50.0,,59.5,13.4
3200.0,70.0,49.8,,59.9,14.3
3204.0,71.5,51.2,,61.3,14.4
3208.0,70.0,52.9,,61.4,12.1
3212.0,70.7,52.3,,61.5,13.0
3216.0,70.5,52.0,,61.3,13.1
3220.0,70.2,52.7,,61.4,12.4
3224.0,69.8,53.0,,61.4,11.9
3228.0,70.0,52.5,,61.2,12.3
3232.0,70.6,52.8,,61.7,12.6
3236.0,70.0,53.5,,61.7,11.7
3240.0,70.6,52.9,,61.8,12.6
3244.0,71.8,53.0,,62.4,13.3
3248.0,70.5,52.5,,61.5,12.7
3252.0,69.9,52.7,,61.3,12.1
3256.0,70.4,54.2,,62.3,11.4
3260.0,70.6,53.4,,62.0,12.2
3264.0,69.9,54.4,,62.2,10.9
3268.0,70.2,54.3,,62.3,11.2
3272.0,69.9,54.5,,62.2,10.9
3276.0,69.8,55.1,,62.5,10.4
3280.0,69.4,54.0,,61.7,10.9
3284.0,69.9,54.1,,62.0,11.2
3288.0,69.0,54.7,,61.9,10.2
3292.0,71.0,53.5,,62.2,12.4
3296.0,69.8,53.3,,61.5,11.7
3300.0,68.5,53.9,,61.2,10.3
3304.0,69.1,54.8,,61.9,10.1
3308.0,68.4,54.4,,61.4,9.9
3312.0,68.8,55.8,,62.3,9.2
3316.0,67.7,56.4,,62.1,8.0
3320.0,69.6,56.2,,62.9,9.5
3324.0,68.3,56.3,,62.3,8.5
3328.0,67.0,57.1,,62.1,7.0
3332.0,67.9,56.3,,62.1,8.2
3336.0,66.8,55.4,,61.1,8.0
3340.0,66.0,55.5,,60.8,7.4
3344.0,67.0,55.2,,61.1,8.3
3348.0,66.5,56.3,,61.4,7.2
3352.0,66.7,57.0,,61.8,6.9
3356.0,67.1,57.3,,62.2,6.9
3360.0,65.1,58.3,,61.7,4.8
3364.0,66.1,59.6,,62.9,4.7
3368.0,65.8,58.1,,61.9,5.4
3372.0,65.2,59.1,,62.2,4.3
3376.0,63.8,58.0,,60.9,4.1
3380.0,63.7,59.1,,61.4,3.2
3384.0,65.1,56.9,,61.0,5.8
3388.0,64.5,56.6,,60.5,5.6
3392.0,64.4,57.1,,60.8,5.2
3396.0,64.4,57.6,,61.0,4.8
3400.0,63.3,57.5,,60.4,4.1
3404.0,63.0,57.8,,60.4,3.7
3408.0,63.5,57.9,,60.7,3.9
3412.0,62.5,58.9,,60.7,2.5
3416.0,62.0,58.7,,60.3,2.3
3420.0,61.9,60.1,,61.0,1.3
3424.0,61.0,60.1,,60.6,0.7
3428.0,60.9,59.6,,60.3,1.0
3432.0,61.5,60.1,,60.8,1.0
3436.0,61.4,60.8,,61.1,0.4
3440.0,60.5,61.1,,60.8,0.4
3444.0,59.2,60.1,,59.6,0.6
3448.0,58.2,61.2,,59.7,2.1
3452.0,58.9,60.6,,59.7,1.2
3456.0,60.1,59.7,,59.9,0.3
3460.0,57.5,60.8,,59.1,2.4
3464.0,57.7,60.2,,58.9,1.8
3468.0,58.1,61.0,,59.6,2.0
3472.0,57.1,61.1,,59.1,2.8
3476.0,57.2,61.0,,59.1,2.7
3480.0,57.0,62.7,,59.9,4.0
3484.0,57.2,62.9,,60.0,4.0
3488.0,57.7,62.2,,59.9,3.2
3492.0,58.2,62.3,,60.3,2.9
3496.0,56.6,61.1,,58.8,3.2
3500.0,56.2,61.9,,59.0,4.0
3504.0,54.8,,,54.8,
3508.0,55.4,,,55.4,
3512.0,54.8,,,54.8,
3516.0,54.7,,,54.7,
3520.0,54.8,,,54.8,
3524.0,54.3,,,54.3,
3528.0,54.5,,,54.5,
3532.0,54.5,,,54.5,
3536.0,54.2,,,54.2,
3540.0,55.0,,,55.0,
3544.0,53.8,,,53.8,
3548.0,53.9,,,53.9,
3552.0,54.4,,,54.4,
3556.0,53.0,,,53.0,
3560.0,52.3,,,52.3,
3564.0,52.0,,,52.0,
3568.0,51.8,,,51.8,
3572.0,50.8,,,50.8,
3576.0,51.2,,,51.2,
3580.0,51.3,,,51.3,
3584.0,51.6,,,51.6,
3588.0,51.8,,,51.8,
3592.0,52.6,,,52.6,
3596.0,51.6,,,51.6,
3600.0,52.2,,,52.2,
3604.0,51.5,,,51.5,
3608.0,50.9,,,50.9,
3612.0,50.9,,,50.9,
3616.0,50.4,,,50.4,
3620.0,49.7,,,49.7,
3624.0,51.2,,,51.2,
3628.0,49.2,,,49.2,
3632.0,49.3,,,49.3,
3636.0,49.7,,,49.7,
3640.0,49.9,,,49.9,
3644.0,49.7,,,49.7,
3648.0,48.5,,,48.5,
3652.0,48.5,,,48.5,
3656.0,49.4,,,49.4,
3660.0,48.7,,,48.7,
3664.0,47.9,,,47.9,
3668.0,47.9,,,47.9,
3672.0,47.8,,,47.8,
3676.0,48.7,,,48.7,
3680.0,49.3,,,49.3,
3684.0,47.5,,,47.5,
3688.0,48.1,,,48.1,
3692.0,48.7,,,48.7,
3696.0,47.9,,,47.9,
3700.0,47.6,,,47.6,
3704.0,47.3,,,47.3,
3708.0,47.8,,,47.8,
3712.0,47.7,,,47.7,
3716.0,47.2,,,47.2,
3720.0,48.5,,,48.5,
3724.0,48.4,,,48.4,
3728.0,48.4,,,48.4,
3732.0,48.3,,,48.3,
3736.0,48.0,,,48.0,
3740.0,48.9,,,48.9,
3744.0,48.4,,,48.4,
3748.0,49.4,,,49.4,
3752.0,48.4,,,48.4,
3756.0,49.2,,,49.2,
3760.0,49.2,,,49.2,
3764.0,47.3,,,47.3,
3768.0,47.2,,,47.2,
3772.0,47.2,,,47.2,
3776.0,46.8,,,46.8,
3780.0,47.1,,,47.1,
3784.0,47.9,,,47.9,
3788.0,46.1,,,46.1,
3792.0,46.3,,,46.3,
3796.0,46.1,,,46.1,
3800.0,46.1,,,46.1,
3804.0,47.1,,,47.1,
3808.0,45.9,,,45.9,
3812.0,46.2,,,46.2,
3816.0,45.7,,,45.7,
3820.0,45.1,,,45.1,
3824.0,45.6,,,45.6,
3828.0,45.4,,,45.4,
3832.0,47.1,,,47.1,
3836.0,47.2,,,47.2,
3840.0,47.5,,,47.5,
3844.0,46.4,,,46.4,
3848.0,45.7,,,45.7,
3852.0,45.6,,,45.6,
3856.0,45.0,,,45.0,
3860.0,45.8,,,45.8,
3864.0,45.8,,,45.8,
3868.0,44.2,,,44.2,
3872.0,44.4,,,44.4,
3876.0,45.6,,,45.6,
3880.0,45.0,,,45.0,
3884.0,43.7,,,43.7,
3888.0,44.1,,,44.1,
3892.0,43.5,,,43.5,
3896.0,43.3,,,43.3,
3900.0,43.9,,,43.9,
3904.0,44.5,,,44.5,
3908.0,44.2,,,44.2,
3912.0,44.7,,,44.7,
3916.0,44.0,,,44.0,
3920.0,44.5,,,44.5,
3924.0,44.9,,,44.9,
3928.0,44.6,,,44.6,
3932.0,44.9,,,44.9,
3936.0,44.9,,,44.9,
3940.0,43.4,,,43.4,
3944.0,43.0,,,43.0,
3948.0,43.6,,,43.6,
3952.0,45.0,,,45.0,
3956.0,45.0,,,45.0,
3960.0,46.3,,,46.3,
3964.0,45.8,,,45.8,
3968.0,45.7,,,45.7,
3972.0,44.9,,,44.9,
3976.0,45.6,,,45.6,
3980.0,46.0,,,46.0,
3984.0,45.3,,,45.3,
3988.0,45.0,,,45.0,
3992.0,44.5,,,44.5,
3996.0,44.3,,,44.3,
4000.0,44.9,,,44.9,
4004.0,44.9,,,44.9,
4008.0,44.4,,,44.4,
4012.0,44.3,,,44.3,
4016.0,44.8,,,44.8,
4020.0,45.3,,,45.3,
4024.0,44.6,,,44.6,
4028.0,44.6,,,44.6,
4032.0,44.4,,,44.4,
4036.0,44.1,,,44.1,
4040.0,43.8,,,43.8,
4044.0,43.7,,,43.7,
4048.0,44.0,,,44.0,
4052.0,43.9,,,43.9,
4056.0,45.2,,,45.2,
4060.0,45.1,,,45.1,
4064.0,44.2,,,44.2,
4068.0,44.4,,,44.4,
4072.0,44.2,,,44.2,
4076.0,44.8,,,44.8,
4080.0,44.5,,,44.5,
4084.0,44.5,,,44.5,
4088.0,44.2,,,44.2,
4092.0,44.3,,,44.3,
4096.0,44.3,,,44.3,
4100.0,45.4,,,45.4,
4104.0,44.9,,,44.9,
4108.0,44.9,,,44.9,
4112.0,45.2,,,45.2,
4116.0,45.8,,,45.8,
4120.0,45.4,,,45.4,
4124.0,45.7,,,45.7,
4128.0,45.4,,,45.4,
4132.0,44.8,,,44.8,
4136.0,45.3,,,45.3,
4140.0,45.7,,,45.7,
4144.0,44.9,,,44.9,
4148.0,44.6,,,44.6,
4152.0,45.3,,,45.3,
4156.0,44.3,,,44.3,
4160.0,44.8,,,44.8,
4164.0,44.3,,,44.3,
4168.0,44.3,,,44.3,
4172.0,44.6,,,44.6,
4176.0,43.8,,,43.8,
4180.0,44.4,,,44.4,
4184.0,44.9,,,44.9,
4188.0,45.0,,,45.0,
4192.0,45.6,,,45.6,
4196.0,45.1,,,45.1,
4200.0,44.6,,,44.6,
4204.0,44.7,,,44.7,
4208.0,44.7,,,44.7,
4212.0,45.4,,,45.4,
4216.0,45.2,,,45.2,
4220.0,45.7,,,45.7,
4224.0,45.7,,,45.7,
4228.0,45.7,,,45.7,
4232.0,45.3,,,45.3,
4236.0,45.3,,,45.3,
4240.0,45.6,,,45.6,
4244.0,45.5,,,45.5,
4248.0,45.0,,,45.0,
4252.0,45.5,,,45.5,
4256.0,45.9,,,45.9,
4260.0,46.7,,,46.7,
4264.0,46.3,,,46.3,
4268.0,45.4,,,45.4,
4272.0,45.3,,,45.3,
4276.0,46.3,,,46.3,
4280.0,47.0,,,47.0,
4284.0,47.2,,,47.2,
4288.0,46.1,,,46.1,
4292.0,46.5,,,46.5,
4296.0,45.1,,,45.1,
4300.0,44.9,,,44.9,
4304.0,46.2,,,46.2,
4308.0,44.4,,,44.4,
4312.0,45.1,,,45.1,
4316.0,46.1,,,46.1,
4320.0,44.5,,,44.5,
4324.0,44.8,,,44.8,
4328.0,46.2,,,46.2,
4332.0,45.1,,,45.1,
4336.0,44.6,,,44.6,
4340.0,44.3,,,44.3,
4344.0,43.4,,,43.4,
4348.0,44.6,,,44.6,
4352.0,45.0,,,45.0,
4356.0,44.3,,,44.3,
4360.0,44.6,,,44.6,
4364.0,45.1,,,45.1,
4368.0,45.5,,,45.5,
4372.0,46.5,,,46.5,
4376.0,45.0,,,45.0,
4380.0,44.1,,,44.1,
4384.0,45.0,,,45.0,
4388.0,45.8,,,45.8,
4392.0,45.6,,,45.6,
4396.0,45.8,,,45.8,
4400.0,45.1,,,45.1,
4404.0,46.0,,,46.0,
4408.0,46.3,,,46.3,
4412.0,45.0,,,45.0,
4416.0,44.0,,,44.0,
4420.0,45.3,,,45.3,
4424.0,45.3,,,45.3,
4428.0,45.9,,,45.9,
4432.0,46.1,,,46.1,
4436.0,45.8,,,45.8,
4440.0,46.3,,,46.3,
4444.0,46.7,,,46.7,
4448.0,46.2,,,46.2,
4452.0,47.2,,,47.2,
4456.0,46.9,,,46.9,
4460.0,47.0,,,47.0,
4464.0,46.5,,,46.5,
4468.0,46.7,,,46.7,
4472.0,46.9,,,46.9,
4476.0,46.4,,,46.4,
4480.0,45.6,,,45.6,
4484.0,46.0,,,46.0,
4488.0,46.3,,,46.3,
4492.0,45.7,,,45.7,
4496.0,45.7,,,45.7,
4500.0,45.3,,,45.3,
4504.0,44.9,,,44.9,
4508.0,46.2,,,46.2,
4512.0,47.5,,,47.5,
4516.0,46.1,,,46.1,
4520.0,46.3,,,46.3,
4524.0,47.0,,,47.0,
4528.0,46.7,,,46.7,
4532.0,47.6,,,47.6,
4536.0,48.2,,,48.2,
4540.0,47.3,,,47.3,
4544.0,46.9,,,46.9,
4548.0,47.1,,,47.1,
4552.0,46.0,,,46.0,
4556.0,45.3,,,45.3,
4560.0,46.3,,,46.3,
4564.0,45.9,,,45.9,
4568.0,45.1,,,45.1,
4572.0,44.8,,,44.8,
4576.0,46.2,,,46.2,
4580.0,46.7,,,46.7,
4584.0,46.9,,,46.9,
4588.0,46.5,,,46.5,
4592.0,47.2,,,47.2,
4596.0,46.8,,,46.8,
4600.0,45.4,,,45.4,
4604.0,46.4,,,46.4,
4608.0,46.0,,,46.0,
4612.0,45.5,,,45.5,
4616.0,46.1,,,46.1,
4620.0,45.2,,,45.2,
4624.0,44.6,,,44.6,
4628.0,45.6,,,45.6,
4632.0,45.6,,,45.6,
4636.0,44.9,,,44.9,
4640.0,45.7,,,45.7,
4644.0,46.1,,,46.1,
4648.0,45.7,,,45.7,
4652.0,46.7,,,46.7,
4656.0,46.7,,,46.7,
4660.0,47.1,,,47.1,
4664.0,47.2,,,47.2,
4668.0,44.5,,,44.5,
4672.0,43.6,,,43.6,
4676.0,44.2,,,44.2,
4680.0,44.8,,,44.8,
4684.0,45.5,,,45.5,
4688.0,45.3,,,45.3,
4692.0,45.3,,,45.3,
4696.0,45.6,,,45.6,
4700.0,46.2,,,46.2,
4704.0,46.0,,,46.0,
4708.0,44.6,,,44.6,
4712.0,45.5,,,45.5,
4716.0,45.8,,,45.8,
4720.0,45.3,,,45.3,
4724.0,44.6,,,44.6,
4728.0,44.7,,,44.7,
4732.0,46.5,,,46.5,
4736.0,45.7,,,45.7,
4740.0,44.9,,,44.9,
4744.0,45.1,,,45.1,
4748.0,45.2,,,45.2,
4752.0,44.9,,,44.9,
4756.0,45.3,,,45.3,
4760.0,46.1,,,46.1,
4764.0,45.4,,,45.4,
4768.0,45.2,,,45.2,
4772.0,43.8,,,43.8,
4776.0,43.8,,,43.8,
4780.0,43.8,,,43.8,
4784.0,44.5,,,44.5,
4788.0,44.8,,,44.8,
4792.0,43.5,,,43.5,
4796.0,44.4,,,44.4,
4800.0,44.6,,,44.6,
4804.0,44.5,,,44.5,
4808.0,44.4,,,44.4,
4812.0,44.6,,,44.6,
4816.0,44.1,,,44.1,
4820.0,43.9,,,43.9,
4824.0,44.7,,,44.7,
4828.0,44.1,,,44.1,
4832.0,43.2,,,43.2,
4836.0,43.1,,,43.1,
4840.0,42.3,,,42.3,
4844.0,42.6,,,42.6,
4848.0,44.0,,,44.0,
4852.0,44.5,,,44.5,
4856.0,43.0,,,43.0,
4860.0,43.5,,,43.5,
4864.0,42.4,,,42.4,
4868.0,43.0,,,43.0,
4872.0,42.5,,,42.5,
4876.0,42.1,,,42.1,
4880.0,42.4,,,42.4,
4884.0,41.1,,,41.1,
4888.0,40.9,,,40.9,
4892.0,41.7,,,41.7,
4896.0,41.5,,,41.5,
4900.0,42.2,,,42.2,
4904.0,42.6,,,42.6,
4908.0,42.5,,,42.5,
4912.0,41.1,,,41.1,
4916.0,41.8,,,41.8,
4920.0,42.0,,,42.0,
4924.0,41.9,,,41.9,
4928.0,42.3,,,42.3,
4932.0,42.8,,,42.8,
4936.0,41.7,,,41.7,
4940.0,40.2,,,40.2,
4944.0,39.6,,,39.6,
4948.0,39.4,,,39.4,
4952.0,38.9,,,38.9,
4956.0,39.4,,,39.4,
4960.0,39.8,,,39.8,
4964.0,39.5,,,39.5,
4968.0,39.6,,,39.6,
4972.0,39.4,,,39.4,
4976.0,38.9,,,38.9,
4980.0,39.6,,,39.6,
4984.0,39.7,,,39.7,
4988.0,38.5,,,38.5,
4992.0,39.0,,,39.0,
4996.0,38.0,,,38.0,
5000.0,39.6,,,39.6,
5004.0,40.1,,,40.1,
5008.0,39.4,,,39.4,
5012.0,39.9,,,39.9,
5016.0,40.5,,,40.5,
5020.0,40.3,,,40.3,
5024.0,40.4,,,40.4,
5028.0,40.1,,,40.1,
5032.0,38.4,,,38.4,
5036.0,37.3,,,37.3,
5040.0,38.0,,,38.0,
5044.0,38.8,,,38.8,
5048.0,37.5,,,37.5,
5052.0,36.4,,,36.4,
5056.0,36.5,,,36.5,
5060.0,36.8,,,36.8,
5064.0,37.0,,,37.0,
5068.0,36.3,,,36.3,
5072.0,36.2,,,36.2,
5076.0,36.7,,,36.7,
5080.0,36.4,,,36.4,
5084.0,36.3,,,36.3,
5088.0,37.2,,,37.2,
5092.0,36.9,,,36.9,
5096.0,36.8,,,36.8,
5100.0,36.1,,,36.1,
5104.0,36.2,,,36.2,
5108.0,35.5,,,35.5,
5112.0,35.9,,,35.9,
5116.0,34.9,,,34.9,
5120.0,35.2,,,35.2,
5124.0,34.6,,,34.6,
5128.0,34.3,,,34.3,
5132.0,34.2,,,34.2,
5136.0,32.8,,,32.8,
5140.0,33.2,,,33.2,
5144.0,33.2,,,33.2,
5148.0,33.6,,,33.6,
5152.0,34.1,,,34.1,
5156.0,33.8,,,33.8,
5160.0,33.5,,,33.5,
5164.0,33.5,,,33.5,
5168.0,34.0,,,34.0,
5172.0,33.6,,,33.6,
5176.0,33.1,,,33.1,
5180.0,32.7,,,32.7,
5184.0,32.4,,,32.4,
5188.0,32.9,,,32.9,
5192.0,32.6,,,32.6,
5196.0,32.2,,,32.2,
5200.0,31.2,,,31.2,
5204.0,30.9,,,30.9,
5208.0,31.0,,,31.0,
5212.0,31.0,,,31.0,
5216.0,31.3,,,31.3,
5220.0,31.5,,,31.5,
5224.0,32.0,,,32.0,
5228.0,31.6,,,31.6,
5232.0,32.0,,,32.0,
5236.0,32.4,,,32.4,
5240.0,31.3,,,31.3,
5244.0,31.2,,,31.2,
5248.0,30.0,,,30.0,
5252.0,29.8,,,29.8,
5256.0,30.9,,,30.9,
5260.0,30.7,,,30.7,
5264.0,31.0,,,31.0,
5268.0,29.6,,,29.6,
5272.0,29.6,,,29.6,
5276.0,29.5,,,29.5,
5280.0,29.4,,,29.4,
5284.0,28.7,,,28.7,
5288.0,29.7,,,29.7,
5292.0,28.1,,,28.1,
5296.0,28.0,,,28.0,
5300.0,28.7,,,28.7,
5304.0,28.7,,,28.7,
5308.0,27.6,,,27.6,
5312.0,26.5,,,26.5,
5316.0,25.7,,,25.7,
5320.0,25.5,,,25.5,
5324.0,26.2,,,26.2,
5328.0,25.8,,,25.8,
5332.0,27.9,,,27.9,
5336.0,26.8,,,26.8,
5340.0,27.6,,,27.6,
5344.0,28.5,,,28.5,
5348.0,29.3,,,29.3,
5352.0,28.8,,,28.8,
5356.0,28.5,,,28.5,
5360.0,28.4,,,28.4,
5364.0,28.5,,,28.5,
5368.0,28.1,,,28.1,
5372.0,27.9,,,27.9,
5376.0,27.6,,,27.6,
5380.0,27.4,,,27.4,
5384.0,27.4,,,27.4,
5388.0,26.1,,,26.1,
5392.0,25.9,,,25.9,
5396.0,25.4,,,25.4,
5400.0,25.8,,,25.8,
5404.0,26.8,,,26.8,
5408.0,27.5,,,27.5,
5412.0,26.8,,,26.8,
5416.0,25.4,,,25.4,
5420.0,25.3,,,25.3,
5424.0,25.3,,,25.3,
5428.0,25.5,,,25.5,
5432.0,25.3,,,25.3,
5436.0,25.6,,,25.6,
5440.0,26.6,,,26.6,
5444.0,28.4,,,28.4,
5448.0,26.6,,,26.6,
5452.0,26.2,,,26.2,
5456.0,25.5,,,25.5,
5460.0,25.9,,,25.9,
5464.0,25.9,,,25.9,
5468.0,26.0,,,26.0,
5472.0,24.7,,,24.7,
5476.0,25.0,,,25.0,
5480.0,24.7,,,24.7,
5484.0,25.0,,,25.0,
5488.0,24.8,,,24.8,
5492.0,25.3,,,25.3,
5496.0,26.0,,,26.0,
5500.0,26.4,,,26.4,
5504.0,26.4,,,26.4,
5508.0,25.2,,,25.2,
5512.0,24.9,,,24.9,
5516.0,25.1,,,25.1,
5520.0,24.9,,,24.9,
5524.0,25.5,,,25.5,
5528.0,25.3,,,25.3,
5532.0,25.3,,,25.3,
5536.0,24.2,,,24.2,
5540.0,25.2,,,25.2,
5544.0,25.1,,,25.1,
5548.0,24.8,,,24.8,
5552.0,24.3,,,24.3,
5556.0,25.0,,,25.0,
5560.0,26.2,,,26.2,
5564.0,24.5,,,24.5,
5568.0,23.9,,,23.9,
5572.0,24.0,,,24.0,
5576.0,24.0,,,24.0,
5580.0,24.6,,,24.6,
5584.0,24.8,,,24.8,
5588.0,25.6,,,25.6,
5592.0,25.9,,,25.9,
5596.0,25.8,,,25.8,
5600.0,25.4,,,25.4,
5604.0,24.5,,,24.5,
5608.0,24.0,,,24.0,
5612.0,23.4,,,23.4,
5616.0,24.2,,,24.2,
5620.0,23.4,,,23.4,
5624.0,23.8,,,23.8,
5628.0,24.0,,,24.0,
5632.0,25.3,,,25.3,
5636.0,25.4,,,25.4,
5640.0,24.4,,,24.4,
5644.0,24.3,,,24.3,
5648.0,24.6,,,24.6,
5652.0,24.1,,,24.1,
5656.0,23.7,,,23.7,
5660.0,23.3,,,23.3,
5664.0,24.8,,,24.8,
5668.0,25.7,,,25.7,
5672.0,25.7,,,25.7,
5676.0,25.8,,,25.8,
5680.0,24.8,,,24.8,
5684.0,25.0,,,25.0,
5688.0,23.1,,,23.1,
5692.0,23.4,,,23.4,
5696.0,22.9,,,22.9,
5700.0,23.7,,,23.7,
5704.0,24.3,,,24.3,
5708.0,24.0,,,24.0,
5712.0,23.5,,,23.5,
5716.0,23.3,,,23.3,
5720.0,21.6,,,21.6,
5724.0,20.7,,,20.7,
5728.0,19.1,,,19.1,
5732.0,19.4,,,19.4,
5736.0,19.6,,,19.6,
5740.0,19.9,,,19.9,
5740.75,20.0,,,20.0,