File: 01_Data/Composite_Deck_Board/FTIR/IS/Composite_Deck_Board_IS_S_220928_R4.dpt
7497.03,0.39873
7491.25,0.40852
7485.46,0.39556
7479.67,0.40540
7473.89,0.40304
7468.1,0.39973
7462.32,0.39009
7456.53,0.39835
7450.74,0.39960
7444.96,0.39176
7439.17,0.39191
7433.38,0.39524
7427.6,0.39475
7421.81,0.39741
7416.03,0.39293
7410.24,0.38719
7404.45,0.39867
7398.67,0.39828
7392.88,0.39108
7387.09,0.39479
7381.31,0.39289
7375.52,0.39264
7369.74,0.38648
7363.95,0.39458
7358.16,0.39355
7352.38,0.39167
7346.59,0.39565
7340.8,0.39210
7335.02,0.38894
7329.23,0.38991
7323.45,0.38426
7317.66,0.38656
7311.87,0.38513
7306.09,0.38523
7300.3,0.39186
7294.51,0.38757
7288.73,0.38040
7282.94,0.38577
7277.16,0.38711
7271.37,0.38930
7265.58,0.38493
7259.8,0.38620
7254.01,0.39532
7248.22,0.39775
7242.44,0.39651
7236.65,0.37868
7230.87,0.38067
7225.08,0.38251
7219.29,0.37440
7213.51,0.37482
7207.72,0.37698
7201.93,0.37845
7196.15,0.37228
7190.36,0.37332
7184.58,0.37509
7178.79,0.36940
7173,0.37534
7167.22,0.37519
7161.43,0.36992
7155.65,0.37886
7149.86,0.37335
7144.07,0.37354
7138.29,0.36931
7132.5,0.38092
7126.71,0.36967
7120.93,0.37267
7115.14,0.36839
7109.36,0.36635
7103.57,0.36179
7097.78,0.36839
7092,0.36502
7086.21,0.36439
7080.42,0.36053
7074.64,0.36355
7068.85,0.35557
7063.07,0.35509
7057.28,0.35290
7051.49,0.34984
7045.71,0.35143
7039.92,0.34875
7034.13,0.34407
7028.35,0.34519
7022.56,0.34621
7016.78,0.34375
7010.99,0.34384
7005.2,0.33891
6999.42,0.34189
6993.63,0.33905
6987.84,0.33871
6982.06,0.33447
6976.27,0.33389
6970.49,0.33692
6964.7,0.33340
6958.91,0.33827
6953.13,0.33583
6947.34,0.33370
6941.55,0.33976
6935.77,0.33245
6929.98,0.33445
6924.2,0.32983
6918.41,0.33676
6912.62,0.33628
6906.84,0.33574
6901.05,0.33734
6895.26,0.33559
6889.48,0.33923
6883.69,0.33553
6877.91,0.33179
6872.12,0.32998
6866.33,0.33492
6860.55,0.33442
6854.76,0.33118
6848.97,0.33152
6843.19,0.33314
6837.4,0.33193
6831.62,0.33264
6825.83,0.33451
6820.04,0.33405
6814.26,0.33395
6808.47,0.33380
6802.68,0.33537
6796.9,0.33213
6791.11,0.33701
6785.33,0.33607
6779.54,0.33829
6773.75,0.33597
6767.97,0.33341
6762.18,0.33470
6756.39,0.33547
6750.61,0.33504
6744.82,0.33424
6739.04,0.34155
6733.25,0.34119
6727.46,0.34204
6721.68,0.33656
6715.89,0.33594
6710.1,0.34230
6704.32,0.34098
6698.53,0.33543
6692.75,0.33774
6686.96,0.34279
6681.17,0.33798
6675.39,0.33721
6669.6,0.33873
6663.82,0.34448
6658.03,0.34305
6652.24,0.34499
6646.46,0.34022
6640.67,0.34108
6634.88,0.34610
6629.1,0.34471
6623.31,0.34545
6617.53,0.34222
6611.74,0.34480
6605.95,0.34482
6600.17,0.34428
6594.38,0.34494
6588.59,0.34398
6582.81,0.34631
6577.02,0.35013
6571.24,0.35068
6565.45,0.35317
6559.66,0.34619
6553.88,0.34367
6548.09,0.34768
6542.3,0.34956
6536.52,0.34643
6530.73,0.35127
6524.95,0.34926
6519.16,0.34779
6513.37,0.35056
6507.59,0.35481
6501.8,0.35168
6496.01,0.34793
6490.23,0.34754
6484.44,0.34672
6478.66,0.34734
6472.87,0.34781
6467.08,0.35079
6461.3,0.35261
6455.51,0.35168
6449.72,0.35087
6443.94,0.35177
6438.15,0.35136
6432.37,0.34945
6426.58,0.35144
6420.79,0.35367
6415.01,0.35368
6409.22,0.35155
6403.43,0.35396
6397.65,0.35357
6391.86,0.34996
6386.08,0.35310
6380.29,0.35172
6374.5,0.35041
6368.72,0.35066
6362.93,0.35357
6357.14,0.35002
6351.36,0.35083
6345.57,0.35192
6339.79,0.35295
6334,0.35361
6328.21,0.35247
6322.43,0.35361
6316.64,0.35079
6310.85,0.35058
6305.07,0.35376
6299.28,0.35707
6293.5,0.35438
6287.71,0.35578
6281.92,0.35449
6276.14,0.35845
6270.35,0.35387
6264.56,0.35837
6258.78,0.36012
6252.99,0.35976
6247.21,0.35762
6241.42,0.36014
6235.63,0.35960
6229.85,0.35979
6224.06,0.36226
6218.27,0.36128
6212.49,0.36048
6206.7,0.36438
6200.92,0.36155
6195.13,0.35804
6189.34,0.36239
6183.56,0.36313
6177.77,0.36305
6171.98,0.36311
6166.2,0.36257
6160.41,0.36204
6154.63,0.36294
6148.84,0.36398
6143.05,0.36316
6137.27,0.36227
6131.48,0.36622
6125.7,0.36448
6119.91,0.36401
6114.12,0.36338
6108.34,0.36605
6102.55,0.36639
6096.76,0.36528
6090.98,0.36670
6085.19,0.36885
6079.41,0.36628
6073.62,0.36489
6067.83,0.36303
6062.05,0.36136
6056.26,0.36271
6050.47,0.36391
6044.69,0.36306
6038.9,0.36214
6033.12,0.36375
6027.33,0.36346
6021.54,0.36194
6015.76,0.35825
6009.97,0.35909
6004.18,0.35944
5998.4,0.36002
5992.61,0.36075
5986.83,0.35550
5981.04,0.35731
5975.25,0.35633
5969.47,0.35727
5963.68,0.35542
5957.89,0.35404
5952.11,0.35356
5946.32,0.35283
5940.54,0.35152
5934.75,0.34957
5928.96,0.34835
5923.18,0.34903
5917.39,0.34826
5911.6,0.34380
5905.82,0.34442
5900.03,0.34307
5894.25,0.34396
5888.46,0.34178
5882.67,0.34198
5876.89,0.33716
5871.1,0.33378
5865.31,0.33256
5859.53,0.32958
5853.74,0.32452
5847.96,0.32227
5842.17,0.32007
5836.38,0.31539
5830.6,0.31150
5824.81,0.30985
5819.02,0.30699
5813.24,0.30405
5807.45,0.29758
5801.67,0.29513
5795.88,0.29133
5790.09,0.28597
5784.31,0.27979
5778.52,0.27298
5772.73,0.27343
5766.95,0.28248
5761.16,0.29078
5755.38,0.29868
5749.59,0.30504
5743.8,0.31123
5738.02,0.31496
5732.23,0.31485
5726.44,0.31947
5720.66,0.32175
5714.87,0.32407
5709.09,0.32419
5703.3,0.32222
5697.51,0.31750
5691.73,0.31870
5685.94,0.31430
5680.15,0.31279
5674.37,0.30853
5668.58,0.30434
5662.8,0.30106
5657.01,0.30590
5651.22,0.31284
5645.44,0.31875
5639.65,0.32213
5633.87,0.32125
5628.08,0.32290
5622.29,0.32346
5616.51,0.32512
5610.72,0.32514
5604.93,0.32654
5599.15,0.32656
5593.36,0.32641
5587.58,0.32705
5581.79,0.32824
5576,0.32642
5570.22,0.32543
5564.43,0.32597
5558.64,0.32418
5552.86,0.32578
5547.07,0.32522
5541.29,0.32573
5535.5,0.32578
5529.71,0.32833
5523.93,0.32714
5518.14,0.32730
5512.35,0.32763
5506.57,0.32655
5500.78,0.32680
5495,0.32772
5489.21,0.32730
5483.42,0.32719
5477.64,0.32792
5471.85,0.32613
5466.06,0.32709
5460.28,0.32958
5454.49,0.32984
5448.71,0.32913
5442.92,0.33105
5437.13,0.33055
5431.35,0.33070
5425.56,0.33206
5419.77,0.33423
5413.99,0.33485
5408.2,0.33478
5402.42,0.33437
5396.63,0.33741
5390.84,0.33617
5385.06,0.33588
5379.27,0.33804
5373.48,0.33865
5367.7,0.33806
5361.91,0.33935
5356.13,0.33988
5350.34,0.33871
5344.55,0.33955
5338.77,0.33967
5332.98,0.33907
5327.19,0.33887
5321.41,0.33561
5315.62,0.33394
5309.84,0.33181
5304.05,0.33022
5298.26,0.32758
5292.48,0.32558
5286.69,0.32088
5280.9,0.31781
5275.12,0.31392
5269.33,0.30782
5263.55,0.30278
5257.76,0.29724
5251.97,0.29378
5246.19,0.28936
5240.4,0.28491
5234.61,0.28249
5228.83,0.27825
5223.04,0.27638
5217.26,0.27461
5211.47,0.27320
5205.68,0.27087
5199.9,0.27328
5194.11,0.27147
5188.32,0.27113
5182.54,0.27207
5176.75,0.27375
5170.97,0.27362
5165.18,0.27431
5159.39,0.27681
5153.61,0.27700
5147.82,0.27926
5142.03,0.28217
5136.25,0.28352
5130.46,0.28529
5124.68,0.28616
5118.89,0.28596
5113.1,0.28872
5107.32,0.28981
5101.53,0.28997
5095.75,0.29286
5089.96,0.29335
5084.17,0.29342
5078.39,0.29531
5072.6,0.29645
5066.81,0.29846
5061.03,0.29855
5055.24,0.29879
5049.46,0.30101
5043.67,0.30208
5037.88,0.30352
5032.1,0.30389
5026.31,0.30546
5020.52,0.30681
5014.74,0.30617
5008.95,0.30527
5003.17,0.30480
4997.38,0.30532
4991.59,0.30602
4985.81,0.30444
4980.02,0.30381
4974.23,0.30248
4968.45,0.30190
4962.66,0.30109
4956.88,0.29979
4951.09,0.29801
4945.3,0.29843
4939.52,0.29649
4933.73,0.29387
4927.94,0.29093
4922.16,0.28801
4916.37,0.28741
4910.59,0.28418
4904.8,0.28089
4899.01,0.28035
4893.23,0.27676
4887.44,0.27538
4881.65,0.27355
4875.87,0.27092
4870.08,0.26800
4864.3,0.26708
4858.51,0.26556
4852.72,0.26423
4846.94,0.26235
4841.15,0.26080
4835.36,0.25917
4829.58,0.25814
4823.79,0.25706
4818.01,0.25516
4812.22,0.25445
4806.43,0.25440
4800.65,0.25300
4794.86,0.25289
4789.07,0.25093
4783.29,0.25250
4777.5,0.25142
4771.72,0.25093
4765.93,0.25035
4760.14,0.24975
4754.36,0.25082
4748.57,0.25040
4742.78,0.25000
4737,0.24989
4731.21,0.24963
4725.43,0.24969
4719.64,0.25094
4713.85,0.25092
4708.07,0.25180
4702.28,0.25245
4696.49,0.25224
4690.71,0.25246
4684.92,0.25240
4679.14,0.25384
4673.35,0.25500
4667.56,0.25629
4661.78,0.25702
4655.99,0.25841
4650.2,0.25851
4644.42,0.25957
4638.63,0.26142
4632.85,0.26260
4627.06,0.26212
4621.27,0.26399
4615.49,0.26516
4609.7,0.26594
4603.92,0.26611
4598.13,0.26733
4592.34,0.26787
4586.56,0.26929
4580.77,0.26947
4574.98,0.26967
4569.2,0.26945
4563.41,0.26994
4557.63,0.27033
4551.84,0.27130
4546.05,0.27132
4540.27,0.27115
4534.48,0.27089
4528.69,0.27128
4522.91,0.27112
4517.12,0.27121
4511.34,0.27018
4505.55,0.26878
4499.76,0.26806
4493.98,0.26635
4488.19,0.26316
4482.4,0.26133
4476.62,0.25681
4470.83,0.25455
4465.05,0.25015
4459.26,0.24618
4453.47,0.24163
4447.69,0.23822
4441.9,0.23397
4436.11,0.23035
4430.33,0.22693
4424.54,0.22300
4418.76,0.22008
4412.97,0.21656
4407.18,0.21383
4401.4,0.21144
4395.61,0.20948
4389.82,0.20781
4384.04,0.20675
4378.25,0.20489
4372.47,0.20387
4366.68,0.20250
4360.89,0.20184
4355.11,0.19785
4349.32,0.19257
4343.53,0.18525
4337.75,0.18074
4331.96,0.17516
4326.18,0.16698
4320.39,0.16370
4314.6,0.17808
4308.82,0.18877
4303.03,0.19223
4297.24,0.19296
4291.46,0.19249
4285.67,0.19148
4279.89,0.19003
4274.1,0.18812
4268.31,0.18593
4262.53,0.18200
4256.74,0.17439
4250.95,0.17058
4245.17,0.17898
4239.38,0.18548
4233.6,0.18644
4227.81,0.18515
4222.02,0.18351
4216.24,0.18327
4210.45,0.18378
4204.66,0.18308
4198.88,0.18022
4193.09,0.17923
4187.31,0.17896
4181.52,0.17921
4175.73,0.18002
4169.95,0.18031
4164.16,0.18075
4158.37,0.17956
4152.59,0.17993
4146.8,0.17931
4141.02,0.17974
4135.23,0.18055
4129.44,0.17846
4123.66,0.17835
4117.87,0.17711
4112.09,0.17664
4106.3,0.17556
4100.51,0.17422
4094.73,0.17310
4088.94,0.17361
4083.15,0.17419
4077.37,0.17422
4071.58,0.17336
4065.8,0.17288
4060.01,0.17104
4054.22,0.17031
4048.44,0.16960
4042.65,0.16876
4036.86,0.16789
4031.08,0.16706
4025.29,0.16608
4019.51,0.16562
4013.72,0.16706
4007.93,0.16753
4002.15,0.16900
3996.36,0.16875
3990.57,0.16915
3984.79,0.16944
3979,0.16969
3973.22,0.17049
3967.43,0.17145
3961.64,0.17218
3955.86,0.17365
3950.07,0.17387
3944.28,0.17512
3938.5,0.17512
3932.71,0.17559
3926.93,0.17608
3921.14,0.17704
3915.35,0.17734
3909.57,0.17787
3903.78,0.17849
3897.99,0.17963
3892.21,0.18106
3886.42,0.18099
3880.64,0.18175
3874.85,0.18264
3869.06,0.18348
3863.28,0.18475
3857.49,0.18642
3851.7,0.18785
3845.92,0.18837
3840.13,0.18898
3834.35,0.18947
3828.56,0.18925
3822.77,0.18939
3816.99,0.18908
3811.2,0.18917
3805.41,0.19074
3799.63,0.19092
3793.84,0.19026
3788.06,0.19086
3782.27,0.18966
3776.48,0.18956
3770.7,0.18864
3764.91,0.18838
3759.12,0.18842
3753.34,0.18698
3747.55,0.18594
3741.77,0.18526
3735.98,0.18370
3730.19,0.18198
3724.41,0.17922
3718.62,0.17755
3712.83,0.17481
3707.05,0.17059
3701.26,0.16753
3695.48,0.16313
3689.69,0.15841
3683.9,0.15282
3678.12,0.14622
3672.33,0.13978
3666.54,0.13359
3660.76,0.12804
3654.97,0.12248
3649.19,0.11735
3643.4,0.11259
3637.61,0.10882
3631.83,0.10541
3626.04,0.10165
3620.25,0.09847
3614.47,0.09532
3608.68,0.09197
3602.9,0.08838
3597.11,0.08631
3591.32,0.08453
3585.54,0.08232
3579.75,0.07993
3573.97,0.07768
3568.18,0.07555
3562.39,0.07414
3556.61,0.07286
3550.82,0.07149
3545.03,0.07009
3539.25,0.06881
3533.46,0.06831
3527.68,0.06654
3521.89,0.06533
3516.1,0.06552
3510.32,0.06442
3504.53,0.06341
3498.74,0.06223
3492.96,0.06204
3487.17,0.06144
3481.39,0.06065
3475.6,0.06070
3469.81,0.06006
3464.03,0.05992
3458.24,0.05971
3452.45,0.05882
3446.67,0.05908
3440.88,0.05844
3435.1,0.05790
3429.31,0.05792
3423.52,0.05783
3417.74,0.05771
3411.95,0.05872
3406.16,0.05876
3400.38,0.05751
3394.59,0.05780
3388.81,0.05820
3383.02,0.05757
3377.23,0.05734
3371.45,0.05841
3365.66,0.05776
3359.87,0.05759
3354.09,0.05823
3348.3,0.05825
3342.52,0.05805
3336.73,0.05866
3330.94,0.05921
3325.16,0.05948
3319.37,0.05933
3313.58,0.05998
3307.8,0.06028
3302.01,0.06042
3296.23,0.06022
3290.44,0.06148
3284.65,0.06196
3278.87,0.06217
3273.08,0.06295
3267.29,0.06352
3261.51,0.06393
3255.72,0.06474
3249.94,0.06486
3244.15,0.06595
3238.36,0.06720
3232.58,0.06732
3226.79,0.06818
3221,0.06851
3215.22,0.06924
3209.43,0.07025
3203.65,0.07111
3197.86,0.07188
3192.07,0.07312
3186.29,0.07346
3180.5,0.07382
3174.71,0.07413
3168.93,0.07523
3163.14,0.07648
3157.36,0.07760
3151.57,0.07818
3145.78,0.07830
3140,0.07865
3134.21,0.08073
3128.42,0.08129
3122.64,0.08164
3116.85,0.08199
3111.07,0.08187
3105.28,0.08304
3099.49,0.08355
3093.71,0.08399
3087.92,0.08444
3082.14,0.08407
3076.35,0.08425
3070.56,0.08470
3064.78,0.08559
3058.99,0.08511
3053.2,0.08498
3047.42,0.08589
3041.63,0.08551
3035.85,0.08489
3030.06,0.08446
3024.27,0.08374
3018.49,0.08233
3012.7,0.08115
3006.91,0.07923
3001.13,0.07704
2995.34,0.07599
2989.56,0.07333
2983.77,0.06994
2977.98,0.06585
2972.2,0.06118
2966.41,0.05658
2960.62,0.05371
2954.84,0.05112
2949.05,0.04933
2943.27,0.04636
2937.48,0.04323
2931.69,0.04121
2925.91,0.04233
2920.12,0.04799
2914.33,0.05300
2908.55,0.05311
2902.76,0.05343
2896.98,0.05407
2891.19,0.05486
2885.4,0.05606
2879.62,0.05749
2873.83,0.05686
2868.04,0.05605
2862.26,0.05291
2856.47,0.04919
2850.69,0.05178
2844.9,0.06036
2839.11,0.06710
2833.33,0.07253
2827.54,0.07664
2821.75,0.08065
2815.97,0.08361
2810.18,0.08530
2804.4,0.08691
2798.61,0.08801
2792.82,0.08988
2787.04,0.09113
2781.25,0.09210
2775.46,0.09325
2769.68,0.09392
2763.89,0.09448
2758.11,0.09499
2752.32,0.09510
2746.53,0.09541
2740.75,0.09499
2734.96,0.09539
2729.17,0.09540
2723.39,0.09611
2717.6,0.09677
2711.82,0.09720
2706.03,0.09776
2700.24,0.09913
2694.46,0.09955
2688.67,0.09984
2682.88,0.09980
2677.1,0.10022
2671.31,0.10017
2665.53,0.10042
2659.74,0.10045
2653.95,0.10056
2648.17,0.10112
2642.38,0.10167
2636.59,0.10212
2630.81,0.10282
2625.02,0.10358
2619.24,0.10452
2613.45,0.10559
2607.66,0.10613
2601.88,0.10689
2596.09,0.10797
2590.3,0.10850
2584.52,0.10904
2578.73,0.10936
2572.95,0.10959
2567.16,0.11044
2561.37,0.11075
2555.59,0.11059
2549.8,0.11156
2544.02,0.11173
2538.23,0.11220
2532.44,0.11221
2526.66,0.11234
2520.87,0.11307
2515.08,0.11372
2509.3,0.11447
2503.51,0.11596
2497.73,0.11590
2491.94,0.11713
2486.15,0.11800
2480.37,0.11812
2474.58,0.11882
2468.79,0.11945
2463.01,0.12059
2457.22,0.12095
2451.44,0.12170
2445.65,0.12216
2439.86,0.12290
2434.08,0.12330
2428.29,0.12370
2422.5,0.12452
2416.72,0.12535
2410.93,0.12590
2405.15,0.12739
2399.36,0.12821
2393.57,0.12908
2387.79,0.12980
2382,0.13067
2376.21,0.13117
2370.43,0.13161
2364.64,0.13185
2358.86,0.13180
2353.07,0.13103
2347.28,0.13067
2341.5,0.13054
2335.71,0.13116
2329.92,0.13123
2324.14,0.13149
2318.35,0.13228
2312.57,0.13291
2306.78,0.13312
2300.99,0.13310
2295.21,0.13301
2289.42,0.13308
2283.63,0.13352
2277.85,0.13300
2272.06,0.13253
2266.28,0.13240
2260.49,0.13204
2254.7,0.13141
2248.92,0.13050
2243.13,0.13007
2237.34,0.13006
2231.56,0.13035
2225.77,0.13033
2219.99,0.13068
2214.2,0.13069
2208.41,0.13059
2202.63,0.12989
2196.84,0.12913
2191.05,0.12819
2185.27,0.12652
2179.48,0.12498
2173.7,0.12379
2167.91,0.12253
2162.12,0.12105
2156.34,0.11966
2150.55,0.11917
2144.76,0.11867
2138.98,0.11805
2133.19,0.11816
2127.41,0.11864
2121.62,0.11882
2115.83,0.11900
2110.05,0.11903
2104.26,0.11946
2098.47,0.12011
2092.69,0.12062
2086.9,0.12062
2081.12,0.12032
2075.33,0.11986
2069.54,0.11942
2063.76,0.11924
2057.97,0.11887
2052.19,0.11848
2046.4,0.11886
2040.61,0.11903
2034.83,0.11901
2029.04,0.11926
2023.25,0.11964
2017.47,0.12004
2011.68,0.12235
2005.9,0.12428
2000.11,0.12557
1994.32,0.12628
1988.54,0.12670
1982.75,0.12686
1976.96,0.12660
1971.18,0.12645
1965.39,0.12580
1959.61,0.12547
1953.82,0.12485
1948.03,0.12511
1942.25,0.12616
1936.46,0.12652
1930.67,0.12802
1924.89,0.12888
1919.1,0.12898
1913.32,0.12884
1907.53,0.12911
1901.74,0.12836
1895.96,0.12757
1890.17,0.12857
1884.38,0.12934
1878.6,0.12940
1872.81,0.12909
1867.03,0.12854
1861.24,0.12775
1855.45,0.12717
1849.67,0.12585
1843.88,0.12439
1838.09,0.12280
1832.31,0.12090
1826.52,0.11882
1820.74,0.11649
1814.95,0.11409
1809.16,0.11127
1803.38,0.10820
1797.59,0.10393
1791.8,0.10017
1786.02,0.09617
1780.23,0.09088
1774.45,0.08425
1768.66,0.07625
1762.87,0.06908
1757.09,0.06362
1751.3,0.05979
1745.51,0.05755
1739.73,0.05704
1733.94,0.05819
1728.16,0.05966
1722.37,0.06188
1716.58,0.06388
1710.8,0.06623
1705.01,0.06875
1699.22,0.06981
1693.44,0.06984
1687.65,0.06973
1681.87,0.06793
1676.08,0.06598
1670.29,0.06429
1664.51,0.06378
1658.72,0.06308
1652.93,0.06299
1647.15,0.06293
1641.36,0.06296
1635.58,0.06269
1629.79,0.06231
1624,0.06142
1618.22,0.06085
1612.43,0.05977
1606.64,0.05870
1600.86,0.05713
1595.07,0.05658
1589.29,0.05756
1583.5,0.06092
1577.71,0.06483
1571.93,0.06836
1566.14,0.07075
1560.35,0.07217
1554.57,0.07194
1548.78,0.07168
1543,0.07111
1537.21,0.06968
1531.42,0.06748
1525.64,0.06465
1519.85,0.06006
1514.07,0.05662
1508.28,0.05526
1502.49,0.05497
1496.71,0.05621
1490.92,0.05750
1485.13,0.05636
1479.35,0.05250
1473.56,0.04478
1467.78,0.04247
1461.99,0.04393
1456.2,0.04738
1450.42,0.04928
1444.63,0.04987
1438.84,0.05032
1433.06,0.05006
1427.27,0.05044
1421.49,0.05123
1415.7,0.05222
1409.91,0.05355
1404.13,0.05329
1398.34,0.05323
1392.55,0.05227
1386.77,0.05058
1380.98,0.04864
1375.2,0.04802
1369.41,0.04894
1363.62,0.04979
1357.84,0.05040
1352.05,0.05036
1346.26,0.05030
1340.48,0.04986
1334.69,0.04976
1328.91,0.04988
1323.12,0.04982
1317.33,0.04982
1311.55,0.05045
1305.76,0.05067
1299.97,0.05111
1294.19,0.05045
1288.4,0.04938
1282.62,0.04916
1276.83,0.04807
1271.04,0.04709
1265.26,0.04503
1259.47,0.04545
1253.68,0.04625
1247.9,0.04682
1242.11,0.04749
1236.33,0.04703
1230.54,0.04809
1224.75,0.04789
1218.97,0.04876
1213.18,0.04955
1207.39,0.04920
1201.61,0.04945
1195.82,0.04890
1190.04,0.04833
1184.25,0.04783
1178.46,0.04655
1172.68,0.04556
1166.89,0.04517
1161.1,0.04585
1155.32,0.04603
1149.53,0.04521
1143.75,0.04400
1137.96,0.04291
1132.17,0.04211
1126.39,0.04349
1120.6,0.04354
1114.81,0.04361
1109.03,0.04380
1103.24,0.04414
1097.46,0.04325
1091.67,0.04364
1085.88,0.04366
1080.1,0.04512
1074.31,0.04671
1068.52,0.04817
1062.74,0.05053
1056.95,0.05330
1051.17,0.05334
1045.38,0.05296
1039.59,0.05454
1033.81,0.05649
1028.02,0.05643
1022.24,0.05641
1016.45,0.05763
1010.66,0.05869
1004.88,0.05907
999.09,0.05977
993.304,0.06095
987.518,0.06205
981.731,0.06371
975.945,0.06449
970.159,0.06530
964.373,0.06649
958.586,0.06883
952.8,0.06975
947.014,0.07084
941.228,0.07135
935.441,0.07003
929.655,0.06960
923.869,0.06911
918.083,0.06750
912.297,0.06587
906.51,0.06343
900.724,0.06227
894.938,0.06235
889.152,0.06374
883.365,0.06493
877.579,0.06492
871.793,0.06509
866.007,0.06538
860.22,0.06528
854.434,0.06493
848.648,0.06421
842.862,0.06348
837.075,0.06134
831.289,0.06148
825.503,0.05930
819.717,0.05889
813.931,0.05742
808.144,0.05622
802.358,0.05583
796.572,0.05692
790.786,0.05985
784.999,0.06096
779.213,0.05934
773.427,0.05757
767.641,0.05789
761.854,0.05715
756.068,0.05529
750.282,0.05329
744.496,0.05318
738.709,0.05172
732.923,0.04903
727.137,0.04852
721.351,0.04699
715.565,0.04949
709.778,0.04982
703.992,0.05123
698.206,0.04950
692.42,0.04958
686.633,0.04865
680.847,0.04875
675.061,0.04744
669.275,0.04651
663.488,0.04771
657.702,0.04638
651.916,0.04709
646.13,0.04658
640.343,0.04722
634.557,0.04438
628.771,0.04763
622.985,0.04528
617.198,0.04611
611.412,0.04628
605.626,0.04260
599.84,0.04298