File: 01_Data/Composite_Deck_Board/FTIR/IS/Composite_Deck_Board_IS_S_220928_R2.dpt
7497.03,0.40363
7491.25,0.39671
7485.46,0.39470
7479.67,0.38472
7473.89,0.40035
7468.1,0.39672
7462.32,0.40319
7456.53,0.39423
7450.74,0.40097
7444.96,0.39288
7439.17,0.38706
7433.38,0.39283
7427.6,0.38943
7421.81,0.38699
7416.03,0.39431
7410.24,0.38780
7404.45,0.39589
7398.67,0.39464
7392.88,0.39318
7387.09,0.39237
7381.31,0.39288
7375.52,0.39289
7369.74,0.38782
7363.95,0.39140
7358.16,0.39284
7352.38,0.38839
7346.59,0.38984
7340.8,0.38890
7335.02,0.38546
7329.23,0.38373
7323.45,0.39254
7317.66,0.38682
7311.87,0.39085
7306.09,0.39228
7300.3,0.39143
7294.51,0.38662
7288.73,0.37870
7282.94,0.37969
7277.16,0.38528
7271.37,0.38412
7265.58,0.38408
7259.8,0.39208
7254.01,0.38560
7248.22,0.37576
7242.44,0.37942
7236.65,0.38307
7230.87,0.37807
7225.08,0.38504
7219.29,0.38306
7213.51,0.38319
7207.72,0.38607
7201.93,0.38346
7196.15,0.37893
7190.36,0.37230
7184.58,0.37660
7178.79,0.37494
7173,0.37184
7167.22,0.36972
7161.43,0.37716
7155.65,0.37533
7149.86,0.36828
7144.07,0.37352
7138.29,0.37122
7132.5,0.36851
7126.71,0.37008
7120.93,0.36938
7115.14,0.36642
7109.36,0.36634
7103.57,0.36960
7097.78,0.36662
7092,0.36980
7086.21,0.36348
7080.42,0.36060
7074.64,0.35410
7068.85,0.35446
7063.07,0.35372
7057.28,0.35415
7051.49,0.35142
7045.71,0.35123
7039.92,0.34695
7034.13,0.34410
7028.35,0.34721
7022.56,0.34474
7016.78,0.34394
7010.99,0.34830
7005.2,0.34326
6999.42,0.33960
6993.63,0.33863
6987.84,0.34107
6982.06,0.34012
6976.27,0.33541
6970.49,0.33640
6964.7,0.33237
6958.91,0.33264
6953.13,0.33217
6947.34,0.33904
6941.55,0.33382
6935.77,0.33527
6929.98,0.33036
6924.2,0.33052
6918.41,0.33634
6912.62,0.33418
6906.84,0.33618
6901.05,0.33244
6895.26,0.33182
6889.48,0.33087
6883.69,0.33741
6877.91,0.33752
6872.12,0.33319
6866.33,0.33281
6860.55,0.32955
6854.76,0.32723
6848.97,0.32669
6843.19,0.32960
6837.4,0.33222
6831.62,0.33226
6825.83,0.32910
6820.04,0.33183
6814.26,0.33559
6808.47,0.33325
6802.68,0.33244
6796.9,0.33277
6791.11,0.33281
6785.33,0.33269
6779.54,0.33616
6773.75,0.32869
6767.97,0.33257
6762.18,0.33701
6756.39,0.33885
6750.61,0.33431
6744.82,0.33023
6739.04,0.33838
6733.25,0.33603
6727.46,0.33604
6721.68,0.33594
6715.89,0.33525
6710.1,0.33283
6704.32,0.33683
6698.53,0.33730
6692.75,0.33808
6686.96,0.33409
6681.17,0.33600
6675.39,0.33997
6669.6,0.33752
6663.82,0.33732
6658.03,0.34032
6652.24,0.34184
6646.46,0.33984
6640.67,0.34322
6634.88,0.33761
6629.1,0.33557
6623.31,0.33833
6617.53,0.34160
6611.74,0.34323
6605.95,0.34809
6600.17,0.34867
6594.38,0.34177
6588.59,0.34584
6582.81,0.34177
6577.02,0.34412
6571.24,0.34835
6565.45,0.34711
6559.66,0.34993
6553.88,0.34897
6548.09,0.34786
6542.3,0.34696
6536.52,0.34509
6530.73,0.34600
6524.95,0.34541
6519.16,0.34664
6513.37,0.34458
6507.59,0.34843
6501.8,0.34727
6496.01,0.34658
6490.23,0.34694
6484.44,0.34627
6478.66,0.34781
6472.87,0.34837
6467.08,0.34504
6461.3,0.34240
6455.51,0.35050
6449.72,0.34791
6443.94,0.34903
6438.15,0.35134
6432.37,0.34736
6426.58,0.35246
6420.79,0.34917
6415.01,0.35012
6409.22,0.34957
6403.43,0.34925
6397.65,0.35034
6391.86,0.34950
6386.08,0.35013
6380.29,0.35094
6374.5,0.34782
6368.72,0.35018
6362.93,0.34722
6357.14,0.34988
6351.36,0.35260
6345.57,0.35204
6339.79,0.34853
6334,0.35043
6328.21,0.35262
6322.43,0.35002
6316.64,0.35090
6310.85,0.35328
6305.07,0.34986
6299.28,0.35163
6293.5,0.35071
6287.71,0.35262
6281.92,0.35242
6276.14,0.35327
6270.35,0.35307
6264.56,0.35478
6258.78,0.35592
6252.99,0.35544
6247.21,0.35347
6241.42,0.35662
6235.63,0.35701
6229.85,0.35960
6224.06,0.35817
6218.27,0.35693
6212.49,0.35987
6206.7,0.35995
6200.92,0.36218
6195.13,0.36089
6189.34,0.36003
6183.56,0.36067
6177.77,0.36079
6171.98,0.36120
6166.2,0.36248
6160.41,0.36390
6154.63,0.36373
6148.84,0.36268
6143.05,0.36326
6137.27,0.36201
6131.48,0.36448
6125.7,0.35961
6119.91,0.36372
6114.12,0.36482
6108.34,0.36396
6102.55,0.36229
6096.76,0.36296
6090.98,0.36247
6085.19,0.36462
6079.41,0.36074
6073.62,0.36431
6067.83,0.36473
6062.05,0.36286
6056.26,0.36243
6050.47,0.36084
6044.69,0.36025
6038.9,0.35670
6033.12,0.35934
6027.33,0.35874
6021.54,0.35945
6015.76,0.35890
6009.97,0.35869
6004.18,0.35519
5998.4,0.35592
5992.61,0.35559
5986.83,0.35629
5981.04,0.35436
5975.25,0.35599
5969.47,0.35660
5963.68,0.35296
5957.89,0.35219
5952.11,0.35196
5946.32,0.35166
5940.54,0.35096
5934.75,0.34547
5928.96,0.34753
5923.18,0.34737
5917.39,0.34548
5911.6,0.34399
5905.82,0.34266
5900.03,0.34048
5894.25,0.33773
5888.46,0.33898
5882.67,0.33868
5876.89,0.33675
5871.1,0.33233
5865.31,0.33217
5859.53,0.32566
5853.74,0.32468
5847.96,0.32260
5842.17,0.31860
5836.38,0.31426
5830.6,0.30937
5824.81,0.30824
5819.02,0.30442
5813.24,0.30138
5807.45,0.29605
5801.67,0.29276
5795.88,0.28937
5790.09,0.28416
5784.31,0.27760
5778.52,0.26985
5772.73,0.27003
5766.95,0.28116
5761.16,0.29170
5755.38,0.29868
5749.59,0.30453
5743.8,0.31049
5738.02,0.31250
5732.23,0.31465
5726.44,0.31630
5720.66,0.32163
5714.87,0.32032
5709.09,0.32274
5703.3,0.32021
5697.51,0.31690
5691.73,0.31411
5685.94,0.31250
5680.15,0.31017
5674.37,0.30805
5668.58,0.30211
5662.8,0.29831
5657.01,0.30500
5651.22,0.31174
5645.44,0.31572
5639.65,0.31898
5633.87,0.32076
5628.08,0.32014
5622.29,0.32247
5616.51,0.32140
5610.72,0.32242
5604.93,0.32533
5599.15,0.32538
5593.36,0.32517
5587.58,0.32508
5581.79,0.32536
5576,0.32527
5570.22,0.32303
5564.43,0.32168
5558.64,0.32232
5552.86,0.32314
5547.07,0.32379
5541.29,0.32333
5535.5,0.32378
5529.71,0.32301
5523.93,0.32475
5518.14,0.32519
5512.35,0.32516
5506.57,0.32384
5500.78,0.32249
5495,0.32357
5489.21,0.32402
5483.42,0.32370
5477.64,0.32613
5471.85,0.32552
5466.06,0.32845
5460.28,0.32785
5454.49,0.32881
5448.71,0.32725
5442.92,0.32854
5437.13,0.32891
5431.35,0.32992
5425.56,0.33266
5419.77,0.33131
5413.99,0.33157
5408.2,0.33189
5402.42,0.33336
5396.63,0.33424
5390.84,0.33571
5385.06,0.33540
5379.27,0.33548
5373.48,0.33410
5367.7,0.33557
5361.91,0.33668
5356.13,0.33661
5350.34,0.33651
5344.55,0.33636
5338.77,0.33571
5332.98,0.33455
5327.19,0.33398
5321.41,0.33376
5315.62,0.33261
5309.84,0.32927
5304.05,0.32687
5298.26,0.32540
5292.48,0.32186
5286.69,0.31847
5280.9,0.31366
5275.12,0.30934
5269.33,0.30627
5263.55,0.29871
5257.76,0.29410
5251.97,0.29003
5246.19,0.28481
5240.4,0.28133
5234.61,0.27670
5228.83,0.27331
5223.04,0.27269
5217.26,0.27141
5211.47,0.26813
5205.68,0.26865
5199.9,0.26817
5194.11,0.26573
5188.32,0.26708
5182.54,0.26727
5176.75,0.26893
5170.97,0.26922
5165.18,0.27069
5159.39,0.27094
5153.61,0.27334
5147.82,0.27457
5142.03,0.27705
5136.25,0.27898
5130.46,0.28053
5124.68,0.28031
5118.89,0.28208
5113.1,0.28294
5107.32,0.28524
5101.53,0.28590
5095.75,0.28847
5089.96,0.29029
5084.17,0.29144
5078.39,0.29180
5072.6,0.29316
5066.81,0.29421
5061.03,0.29632
5055.24,0.29594
5049.46,0.29710
5043.67,0.29930
5037.88,0.30137
5032.1,0.30140
5026.31,0.30125
5020.52,0.30285
5014.74,0.30312
5008.95,0.30320
5003.17,0.30333
4997.38,0.30221
4991.59,0.30162
4985.81,0.30084
4980.02,0.30103
4974.23,0.29988
4968.45,0.29957
4962.66,0.29853
4956.88,0.29727
4951.09,0.29565
4945.3,0.29517
4939.52,0.29368
4933.73,0.29130
4927.94,0.29007
4922.16,0.28707
4916.37,0.28469
4910.59,0.28313
4904.8,0.28072
4899.01,0.27772
4893.23,0.27595
4887.44,0.27492
4881.65,0.27197
4875.87,0.26905
4870.08,0.26726
4864.3,0.26651
4858.51,0.26451
4852.72,0.26224
4846.94,0.26081
4841.15,0.25941
4835.36,0.25764
4829.58,0.25671
4823.79,0.25577
4818.01,0.25451
4812.22,0.25273
4806.43,0.25163
4800.65,0.25204
4794.86,0.25126
4789.07,0.25095
4783.29,0.24993
4777.5,0.24949
4771.72,0.24818
4765.93,0.24875
4760.14,0.24880
4754.36,0.24841
4748.57,0.24745
4742.78,0.24880
4737,0.24811
4731.21,0.24833
4725.43,0.24846
4719.64,0.24843
4713.85,0.25109
4708.07,0.25052
4702.28,0.25028
4696.49,0.24996
4690.71,0.25154
4684.92,0.25258
4679.14,0.25223
4673.35,0.25220
4667.56,0.25420
4661.78,0.25569
4655.99,0.25530
4650.2,0.25663
4644.42,0.25755
4638.63,0.25852
4632.85,0.25961
4627.06,0.26126
4621.27,0.26215
4615.49,0.26251
4609.7,0.26421
4603.92,0.26492
4598.13,0.26557
4592.34,0.26564
4586.56,0.26725
4580.77,0.26755
4574.98,0.26830
4569.2,0.26758
4563.41,0.26847
4557.63,0.26875
4551.84,0.26963
4546.05,0.26903
4540.27,0.27065
4534.48,0.27024
4528.69,0.26963
4522.91,0.26983
4517.12,0.26948
4511.34,0.26878
4505.55,0.26757
4499.76,0.26643
4493.98,0.26370
4488.19,0.26189
4482.4,0.25850
4476.62,0.25533
4470.83,0.25210
4465.05,0.24787
4459.26,0.24459
4453.47,0.24065
4447.69,0.23618
4441.9,0.23263
4436.11,0.22840
4430.33,0.22420
4424.54,0.22104
4418.76,0.21821
4412.97,0.21509
4407.18,0.21249
4401.4,0.21067
4395.61,0.20767
4389.82,0.20632
4384.04,0.20542
4378.25,0.20387
4372.47,0.20212
4366.68,0.20202
4360.89,0.19943
4355.11,0.19629
4349.32,0.19069
4343.53,0.18406
4337.75,0.17956
4331.96,0.17431
4326.18,0.16564
4320.39,0.16319
4314.6,0.17729
4308.82,0.18661
4303.03,0.19116
4297.24,0.19187
4291.46,0.19142
4285.67,0.18983
4279.89,0.18788
4274.1,0.18741
4268.31,0.18452
4262.53,0.18000
4256.74,0.17386
4250.95,0.17004
4245.17,0.17760
4239.38,0.18413
4233.6,0.18541
4227.81,0.18417
4222.02,0.18129
4216.24,0.18176
4210.45,0.18224
4204.66,0.18183
4198.88,0.18001
4193.09,0.17786
4187.31,0.17737
4181.52,0.17820
4175.73,0.17857
4169.95,0.17942
4164.16,0.17910
4158.37,0.17952
4152.59,0.17876
4146.8,0.17783
4141.02,0.17888
4135.23,0.17848
4129.44,0.17769
4123.66,0.17751
4117.87,0.17562
4112.09,0.17481
4106.3,0.17396
4100.51,0.17246
4094.73,0.17165
4088.94,0.17219
4083.15,0.17294
4077.37,0.17300
4071.58,0.17227
4065.8,0.17099
4060.01,0.16971
4054.22,0.16904
4048.44,0.16867
4042.65,0.16766
4036.86,0.16642
4031.08,0.16564
4025.29,0.16468
4019.51,0.16457
4013.72,0.16545
4007.93,0.16637
4002.15,0.16757
3996.36,0.16721
3990.57,0.16808
3984.79,0.16809
3979,0.16882
3973.22,0.16913
3967.43,0.16985
3961.64,0.17099
3955.86,0.17218
3950.07,0.17307
3944.28,0.17294
3938.5,0.17376
3932.71,0.17425
3926.93,0.17434
3921.14,0.17536
3915.35,0.17560
3909.57,0.17664
3903.78,0.17726
3897.99,0.17848
3892.21,0.17870
3886.42,0.17942
3880.64,0.18037
3874.85,0.18061
3869.06,0.18177
3863.28,0.18356
3857.49,0.18489
3851.7,0.18626
3845.92,0.18634
3840.13,0.18715
3834.35,0.18761
3828.56,0.18740
3822.77,0.18778
3816.99,0.18735
3811.2,0.18724
3805.41,0.18810
3799.63,0.18849
3793.84,0.18906
3788.06,0.18845
3782.27,0.18855
3776.48,0.18774
3770.7,0.18675
3764.91,0.18609
3759.12,0.18582
3753.34,0.18459
3747.55,0.18403
3741.77,0.18283
3735.98,0.18151
3730.19,0.17947
3724.41,0.17736
3718.62,0.17499
3712.83,0.17212
3707.05,0.16813
3701.26,0.16440
3695.48,0.16033
3689.69,0.15526
3683.9,0.14918
3678.12,0.14382
3672.33,0.13696
3666.54,0.13111
3660.76,0.12416
3654.97,0.11858
3649.19,0.11362
3643.4,0.10901
3637.61,0.10570
3631.83,0.10306
3626.04,0.09944
3620.25,0.09698
3614.47,0.09308
3608.68,0.09011
3602.9,0.08711
3597.11,0.08460
3591.32,0.08277
3585.54,0.08100
3579.75,0.07906
3573.97,0.07711
3568.18,0.07506
3562.39,0.07369
3556.61,0.07195
3550.82,0.07074
3545.03,0.06966
3539.25,0.06802
3533.46,0.06693
3527.68,0.06617
3521.89,0.06537
3516.1,0.06469
3510.32,0.06402
3504.53,0.06292
3498.74,0.06249
3492.96,0.06196
3487.17,0.06105
3481.39,0.06025
3475.6,0.05995
3469.81,0.05994
3464.03,0.05999
3458.24,0.05936
3452.45,0.05821
3446.67,0.05916
3440.88,0.05868
3435.1,0.05791
3429.31,0.05771
3423.52,0.05779
3417.74,0.05831
3411.95,0.05746
3406.16,0.05819
3400.38,0.05728
3394.59,0.05768
3388.81,0.05708
3383.02,0.05781
3377.23,0.05775
3371.45,0.05801
3365.66,0.05762
3359.87,0.05796
3354.09,0.05694
3348.3,0.05816
3342.52,0.05822
3336.73,0.05789
3330.94,0.05831
3325.16,0.05905
3319.37,0.05900
3313.58,0.05915
3307.8,0.06011
3302.01,0.05980
3296.23,0.06038
3290.44,0.06108
3284.65,0.06089
3278.87,0.06101
3273.08,0.06181
3267.29,0.06292
3261.51,0.06312
3255.72,0.06445
3249.94,0.06503
3244.15,0.06561
3238.36,0.06612
3232.58,0.06625
3226.79,0.06692
3221,0.06800
3215.22,0.06865
3209.43,0.06977
3203.65,0.07056
3197.86,0.07157
3192.07,0.07129
3186.29,0.07257
3180.5,0.07297
3174.71,0.07419
3168.93,0.07474
3163.14,0.07568
3157.36,0.07647
3151.57,0.07697
3145.78,0.07755
3140,0.07836
3134.21,0.07964
3128.42,0.07918
3122.64,0.08092
3116.85,0.08089
3111.07,0.08076
3105.28,0.08219
3099.49,0.08241
3093.71,0.08284
3087.92,0.08249
3082.14,0.08297
3076.35,0.08322
3070.56,0.08398
3064.78,0.08435
3058.99,0.08395
3053.2,0.08422
3047.42,0.08522
3041.63,0.08443
3035.85,0.08407
3030.06,0.08340
3024.27,0.08272
3018.49,0.08149
3012.7,0.08050
3006.91,0.07849
3001.13,0.07637
2995.34,0.07545
2989.56,0.07274
2983.77,0.06979
2977.98,0.06546
2972.2,0.06104
2966.41,0.05607
2960.62,0.05267
2954.84,0.05131
2949.05,0.04914
2943.27,0.04643
2937.48,0.04326
2931.69,0.04115
2925.91,0.04188
2920.12,0.04751
2914.33,0.05317
2908.55,0.05254
2902.76,0.05205
2896.98,0.05316
2891.19,0.05434
2885.4,0.05570
2879.62,0.05724
2873.83,0.05718
2868.04,0.05621
2862.26,0.05268
2856.47,0.04915
2850.69,0.05163
2844.9,0.06033
2839.11,0.06671
2833.33,0.07212
2827.54,0.07689
2821.75,0.08014
2815.97,0.08231
2810.18,0.08483
2804.4,0.08667
2798.61,0.08781
2792.82,0.08944
2787.04,0.09092
2781.25,0.09175
2775.46,0.09276
2769.68,0.09371
2763.89,0.09403
2758.11,0.09438
2752.32,0.09435
2746.53,0.09465
2740.75,0.09471
2734.96,0.09454
2729.17,0.09492
2723.39,0.09562
2717.6,0.09610
2711.82,0.09672
2706.03,0.09739
2700.24,0.09826
2694.46,0.09868
2688.67,0.09848
2682.88,0.09935
2677.1,0.09939
2671.31,0.09990
2665.53,0.09968
2659.74,0.10019
2653.95,0.10034
2648.17,0.10090
2642.38,0.10107
2636.59,0.10168
2630.81,0.10215
2625.02,0.10323
2619.24,0.10404
2613.45,0.10498
2607.66,0.10566
2601.88,0.10643
2596.09,0.10673
2590.3,0.10760
2584.52,0.10815
2578.73,0.10884
2572.95,0.10920
2567.16,0.10937
2561.37,0.11008
2555.59,0.11038
2549.8,0.11035
2544.02,0.11129
2538.23,0.11152
2532.44,0.11170
2526.66,0.11177
2520.87,0.11215
2515.08,0.11288
2509.3,0.11383
2503.51,0.11477
2497.73,0.11574
2491.94,0.11611
2486.15,0.11713
2480.37,0.11797
2474.58,0.11818
2468.79,0.11872
2463.01,0.11981
2457.22,0.12009
2451.44,0.12063
2445.65,0.12150
2439.86,0.12240
2434.08,0.12225
2428.29,0.12291
2422.5,0.12385
2416.72,0.12418
2410.93,0.12518
2405.15,0.12683
2399.36,0.12723
2393.57,0.12795
2387.79,0.12874
2382,0.12934
2376.21,0.13031
2370.43,0.13068
2364.64,0.13041
2358.86,0.13051
2353.07,0.12970
2347.28,0.12940
2341.5,0.13000
2335.71,0.13006
2329.92,0.13018
2324.14,0.13068
2318.35,0.13180
2312.57,0.13200
2306.78,0.13182
2300.99,0.13229
2295.21,0.13234
2289.42,0.13188
2283.63,0.13205
2277.85,0.13164
2272.06,0.13142
2266.28,0.13127
2260.49,0.13090
2254.7,0.12991
2248.92,0.12905
2243.13,0.12880
2237.34,0.12885
2231.56,0.12945
2225.77,0.12943
2219.99,0.12978
2214.2,0.12950
2208.41,0.12920
2202.63,0.12848
2196.84,0.12765
2191.05,0.12671
2185.27,0.12528
2179.48,0.12379
2173.7,0.12248
2167.91,0.12109
2162.12,0.11970
2156.34,0.11875
2150.55,0.11776
2144.76,0.11732
2138.98,0.11691
2133.19,0.11733
2127.41,0.11763
2121.62,0.11758
2115.83,0.11823
2110.05,0.11803
2104.26,0.11878
2098.47,0.11889
2092.69,0.11886
2086.9,0.11903
2081.12,0.11892
2075.33,0.11839
2069.54,0.11833
2063.76,0.11814
2057.97,0.11752
2052.19,0.11763
2046.4,0.11788
2040.61,0.11786
2034.83,0.11770
2029.04,0.11806
2023.25,0.11842
2017.47,0.11888
2011.68,0.12102
2005.9,0.12301
2000.11,0.12419
1994.32,0.12480
1988.54,0.12577
1982.75,0.12567
1976.96,0.12532
1971.18,0.12499
1965.39,0.12484
1959.61,0.12387
1953.82,0.12394
1948.03,0.12377
1942.25,0.12478
1936.46,0.12567
1930.67,0.12701
1924.89,0.12765
1919.1,0.12787
1913.32,0.12778
1907.53,0.12781
1901.74,0.12712
1895.96,0.12675
1890.17,0.12748
1884.38,0.12834
1878.6,0.12825
1872.81,0.12789
1867.03,0.12736
1861.24,0.12683
1855.45,0.12571
1849.67,0.12469
1843.88,0.12356
1838.09,0.12203
1832.31,0.12035
1826.52,0.11782
1820.74,0.11559
1814.95,0.11325
1809.16,0.11020
1803.38,0.10749
1797.59,0.10348
1791.8,0.09973
1786.02,0.09582
1780.23,0.09062
1774.45,0.08436
1768.66,0.07643
1762.87,0.06912
1757.09,0.06352
1751.3,0.05975
1745.51,0.05738
1739.73,0.05631
1733.94,0.05797
1728.16,0.05963
1722.37,0.06137
1716.58,0.06380
1710.8,0.06587
1705.01,0.06830
1699.22,0.06904
1693.44,0.06960
1687.65,0.06900
1681.87,0.06762
1676.08,0.06569
1670.29,0.06396
1664.51,0.06277
1658.72,0.06213
1652.93,0.06164
1647.15,0.06272
1641.36,0.06234
1635.58,0.06233
1629.79,0.06169
1624,0.06121
1618.22,0.06041
1612.43,0.05941
1606.64,0.05795
1600.86,0.05707
1595.07,0.05630
1589.29,0.05754
1583.5,0.06069
1577.71,0.06456
1571.93,0.06773
1566.14,0.07013
1560.35,0.07125
1554.57,0.07167
1548.78,0.07113
1543,0.07074
1537.21,0.06937
1531.42,0.06747
1525.64,0.06457
1519.85,0.05995
1514.07,0.05611
1508.28,0.05479
1502.49,0.05454
1496.71,0.05618
1490.92,0.05730
1485.13,0.05656
1479.35,0.05285
1473.56,0.04469
1467.78,0.04269
1461.99,0.04384
1456.2,0.04718
1450.42,0.04897
1444.63,0.05001
1438.84,0.05031
1433.06,0.05036
1427.27,0.05081
1421.49,0.05152
1415.7,0.05271
1409.91,0.05290
1404.13,0.05320
1398.34,0.05283
1392.55,0.05197
1386.77,0.05077
1380.98,0.04872
1375.2,0.04766
1369.41,0.04901
1363.62,0.04955
1357.84,0.05022
1352.05,0.05023
1346.26,0.05015
1340.48,0.04994
1334.69,0.04950
1328.91,0.04986
1323.12,0.04993
1317.33,0.04987
1311.55,0.04989
1305.76,0.05035
1299.97,0.05112
1294.19,0.05076
1288.4,0.04973
1282.62,0.04902
1276.83,0.04851
1271.04,0.04682
1265.26,0.04503
1259.47,0.04516
1253.68,0.04605
1247.9,0.04674
1242.11,0.04711
1236.33,0.04738
1230.54,0.04790
1224.75,0.04836
1218.97,0.04902
1213.18,0.04933
1207.39,0.04910
1201.61,0.04901
1195.82,0.04876
1190.04,0.04851
1184.25,0.04735
1178.46,0.04641
1172.68,0.04583
1166.89,0.04570
1161.1,0.04559
1155.32,0.04597
1149.53,0.04488
1143.75,0.04400
1137.96,0.04274
1132.17,0.04248
1126.39,0.04315
1120.6,0.04322
1114.81,0.04349
1109.03,0.04426
1103.24,0.04430
1097.46,0.04332
1091.67,0.04416
1085.88,0.04418
1080.1,0.04550
1074.31,0.04664
1068.52,0.04773
1062.74,0.05058
1056.95,0.05294
1051.17,0.05358
1045.38,0.05381
1039.59,0.05449
1033.81,0.05581
1028.02,0.05600
1022.24,0.05631
1016.45,0.05760
1010.66,0.05869
1004.88,0.05942
999.09,0.05994
993.304,0.06053
987.518,0.06159
981.731,0.06353
975.945,0.06439
970.159,0.06553
964.373,0.06629
958.586,0.06818
952.8,0.07026
947.014,0.07069
941.228,0.07108
935.441,0.07057
929.655,0.06902
923.869,0.06814
918.083,0.06731
912.297,0.06602
906.51,0.06381
900.724,0.06251
894.938,0.06153
889.152,0.06384
883.365,0.06432
877.579,0.06460
871.793,0.06514
866.007,0.06511
860.22,0.06463
854.434,0.06503
848.648,0.06375
842.862,0.06257
837.075,0.06152
831.289,0.06000
825.503,0.05903
819.717,0.05765
813.931,0.05694
808.144,0.05655
802.358,0.05590
796.572,0.05664
790.786,0.05808
784.999,0.05830
779.213,0.05850
773.427,0.05816
767.641,0.05687
761.854,0.05600
756.068,0.05558
750.282,0.05485
744.496,0.05211
738.709,0.05165
732.923,0.04960
727.137,0.04787
721.351,0.04666
715.565,0.04849
709.778,0.05028
703.992,0.05039
698.206,0.04971
692.42,0.05008
686.633,0.04833
680.847,0.04836
675.061,0.04714
669.275,0.04744
663.488,0.04750
657.702,0.04753
651.916,0.04711
646.13,0.04620
640.343,0.04711
634.557,0.04588
628.771,0.04644
622.985,0.04646
617.198,0.04373
611.412,0.04580
605.626,0.04554
599.84,0.04625