File: 01_Data/Composite_Deck_Board/FTIR/IS/Composite_Deck_Board_IS_S_220928_R3.dpt
7497.03,0.39942
7491.25,0.40501
7485.46,0.40208
7479.67,0.38728
7473.89,0.38921
7468.1,0.38571
7462.32,0.39405
7456.53,0.40168
7450.74,0.40164
7444.96,0.40238
7439.17,0.39831
7433.38,0.39376
7427.6,0.39996
7421.81,0.39513
7416.03,0.39328
7410.24,0.39380
7404.45,0.39121
7398.67,0.39429
7392.88,0.39321
7387.09,0.39160
7381.31,0.40061
7375.52,0.39514
7369.74,0.39224
7363.95,0.39787
7358.16,0.38900
7352.38,0.39885
7346.59,0.39322
7340.8,0.38309
7335.02,0.38868
7329.23,0.38723
7323.45,0.39568
7317.66,0.39222
7311.87,0.38671
7306.09,0.39035
7300.3,0.38788
7294.51,0.38616
7288.73,0.38586
7282.94,0.38716
7277.16,0.38438
7271.37,0.38386
7265.58,0.38827
7259.8,0.38437
7254.01,0.38671
7248.22,0.37939
7242.44,0.38602
7236.65,0.38598
7230.87,0.38536
7225.08,0.38221
7219.29,0.38231
7213.51,0.38150
7207.72,0.37900
7201.93,0.37152
7196.15,0.38077
7190.36,0.38284
7184.58,0.37230
7178.79,0.37421
7173,0.37319
7167.22,0.36759
7161.43,0.36349
7155.65,0.36733
7149.86,0.37668
7144.07,0.36793
7138.29,0.36765
7132.5,0.36793
7126.71,0.37325
7120.93,0.37025
7115.14,0.37231
7109.36,0.36969
7103.57,0.36807
7097.78,0.36030
7092,0.36438
7086.21,0.36254
7080.42,0.35803
7074.64,0.35578
7068.85,0.35010
7063.07,0.34936
7057.28,0.35382
7051.49,0.34943
7045.71,0.34883
7039.92,0.34522
7034.13,0.35041
7028.35,0.34398
7022.56,0.34280
7016.78,0.34114
7010.99,0.33932
7005.2,0.33958
6999.42,0.33872
6993.63,0.34580
6987.84,0.33442
6982.06,0.34127
6976.27,0.33464
6970.49,0.33574
6964.7,0.33740
6958.91,0.33532
6953.13,0.32939
6947.34,0.33194
6941.55,0.33809
6935.77,0.33679
6929.98,0.33774
6924.2,0.33437
6918.41,0.33132
6912.62,0.33010
6906.84,0.32942
6901.05,0.32777
6895.26,0.33413
6889.48,0.33496
6883.69,0.33255
6877.91,0.33614
6872.12,0.33146
6866.33,0.33331
6860.55,0.33431
6854.76,0.33074
6848.97,0.33289
6843.19,0.33105
6837.4,0.33567
6831.62,0.33496
6825.83,0.33538
6820.04,0.33172
6814.26,0.33079
6808.47,0.33210
6802.68,0.33250
6796.9,0.33240
6791.11,0.33753
6785.33,0.33666
6779.54,0.33589
6773.75,0.33765
6767.97,0.33723
6762.18,0.33688
6756.39,0.33377
6750.61,0.33121
6744.82,0.33735
6739.04,0.33355
6733.25,0.33882
6727.46,0.33402
6721.68,0.33467
6715.89,0.33827
6710.1,0.33895
6704.32,0.33785
6698.53,0.34203
6692.75,0.34009
6686.96,0.33718
6681.17,0.33605
6675.39,0.33977
6669.6,0.34121
6663.82,0.33882
6658.03,0.34028
6652.24,0.34500
6646.46,0.34271
6640.67,0.34284
6634.88,0.34347
6629.1,0.34412
6623.31,0.34549
6617.53,0.34615
6611.74,0.34433
6605.95,0.34375
6600.17,0.34039
6594.38,0.34792
6588.59,0.34287
6582.81,0.34392
6577.02,0.34544
6571.24,0.34814
6565.45,0.34681
6559.66,0.34600
6553.88,0.34954
6548.09,0.34864
6542.3,0.34775
6536.52,0.34642
6530.73,0.34943
6524.95,0.34560
6519.16,0.34452
6513.37,0.34484
6507.59,0.34682
6501.8,0.34724
6496.01,0.34921
6490.23,0.34709
6484.44,0.34813
6478.66,0.34791
6472.87,0.34609
6467.08,0.34485
6461.3,0.34700
6455.51,0.34870
6449.72,0.34690
6443.94,0.35005
6438.15,0.34848
6432.37,0.34856
6426.58,0.34820
6420.79,0.35163
6415.01,0.35332
6409.22,0.35041
6403.43,0.35164
6397.65,0.34831
6391.86,0.35375
6386.08,0.35158
6380.29,0.35115
6374.5,0.35225
6368.72,0.35132
6362.93,0.34971
6357.14,0.34985
6351.36,0.34971
6345.57,0.35178
6339.79,0.35451
6334,0.35149
6328.21,0.35422
6322.43,0.35359
6316.64,0.35396
6310.85,0.35200
6305.07,0.35277
6299.28,0.35389
6293.5,0.35406
6287.71,0.35478
6281.92,0.35231
6276.14,0.35423
6270.35,0.35675
6264.56,0.35497
6258.78,0.35297
6252.99,0.35552
6247.21,0.35372
6241.42,0.35359
6235.63,0.35779
6229.85,0.36172
6224.06,0.35821
6218.27,0.36001
6212.49,0.36037
6206.7,0.35920
6200.92,0.35851
6195.13,0.36248
6189.34,0.36220
6183.56,0.36166
6177.77,0.36206
6171.98,0.36117
6166.2,0.36412
6160.41,0.36392
6154.63,0.36637
6148.84,0.36403
6143.05,0.36472
6137.27,0.36256
6131.48,0.36910
6125.7,0.36728
6119.91,0.36556
6114.12,0.36626
6108.34,0.36529
6102.55,0.36271
6096.76,0.36238
6090.98,0.36636
6085.19,0.36220
6079.41,0.36657
6073.62,0.36195
6067.83,0.36055
6062.05,0.36381
6056.26,0.36231
6050.47,0.36166
6044.69,0.36163
6038.9,0.35954
6033.12,0.36006
6027.33,0.35988
6021.54,0.35987
6015.76,0.35640
6009.97,0.35716
6004.18,0.35837
5998.4,0.35977
5992.61,0.35806
5986.83,0.35748
5981.04,0.35546
5975.25,0.35575
5969.47,0.35584
5963.68,0.35297
5957.89,0.35560
5952.11,0.35372
5946.32,0.35277
5940.54,0.34999
5934.75,0.34861
5928.96,0.35094
5923.18,0.34802
5917.39,0.34682
5911.6,0.34454
5905.82,0.34592
5900.03,0.34431
5894.25,0.34086
5888.46,0.33837
5882.67,0.33791
5876.89,0.33678
5871.1,0.33465
5865.31,0.33301
5859.53,0.32696
5853.74,0.32522
5847.96,0.32069
5842.17,0.31892
5836.38,0.31447
5830.6,0.31133
5824.81,0.30531
5819.02,0.30439
5813.24,0.30039
5807.45,0.29924
5801.67,0.29327
5795.88,0.28847
5790.09,0.28501
5784.31,0.27982
5778.52,0.27215
5772.73,0.27238
5766.95,0.28088
5761.16,0.29063
5755.38,0.29968
5749.59,0.30599
5743.8,0.31006
5738.02,0.31429
5732.23,0.31399
5726.44,0.31871
5720.66,0.32205
5714.87,0.32221
5709.09,0.32039
5703.3,0.32040
5697.51,0.31830
5691.73,0.31761
5685.94,0.31463
5680.15,0.31013
5674.37,0.30558
5668.58,0.30321
5662.8,0.30156
5657.01,0.30531
5651.22,0.31286
5645.44,0.31924
5639.65,0.32069
5633.87,0.32248
5628.08,0.32319
5622.29,0.32336
5616.51,0.32440
5610.72,0.32440
5604.93,0.32640
5599.15,0.32683
5593.36,0.32763
5587.58,0.32803
5581.79,0.32786
5576,0.32577
5570.22,0.32348
5564.43,0.32377
5558.64,0.32612
5552.86,0.32602
5547.07,0.32408
5541.29,0.32370
5535.5,0.32539
5529.71,0.32523
5523.93,0.32581
5518.14,0.32453
5512.35,0.32403
5506.57,0.32534
5500.78,0.32482
5495,0.32444
5489.21,0.32553
5483.42,0.32472
5477.64,0.32583
5471.85,0.32633
5466.06,0.32731
5460.28,0.32811
5454.49,0.32813
5448.71,0.32834
5442.92,0.32983
5437.13,0.32966
5431.35,0.33188
5425.56,0.33138
5419.77,0.33350
5413.99,0.33381
5408.2,0.33327
5402.42,0.33523
5396.63,0.33533
5390.84,0.33622
5385.06,0.33882
5379.27,0.33686
5373.48,0.33649
5367.7,0.33825
5361.91,0.33816
5356.13,0.33853
5350.34,0.33760
5344.55,0.33899
5338.77,0.33762
5332.98,0.33825
5327.19,0.33530
5321.41,0.33584
5315.62,0.33227
5309.84,0.33100
5304.05,0.32905
5298.26,0.32786
5292.48,0.32407
5286.69,0.31954
5280.9,0.31568
5275.12,0.31122
5269.33,0.30747
5263.55,0.30248
5257.76,0.29686
5251.97,0.29130
5246.19,0.28634
5240.4,0.28459
5234.61,0.27983
5228.83,0.27628
5223.04,0.27508
5217.26,0.27239
5211.47,0.27050
5205.68,0.27033
5199.9,0.27058
5194.11,0.26947
5188.32,0.26872
5182.54,0.27118
5176.75,0.27118
5170.97,0.27103
5165.18,0.27410
5159.39,0.27523
5153.61,0.27652
5147.82,0.27732
5142.03,0.27987
5136.25,0.28163
5130.46,0.28440
5124.68,0.28439
5118.89,0.28464
5113.1,0.28820
5107.32,0.28854
5101.53,0.29010
5095.75,0.28976
5089.96,0.29201
5084.17,0.29329
5078.39,0.29459
5072.6,0.29587
5066.81,0.29674
5061.03,0.29794
5055.24,0.29867
5049.46,0.30028
5043.67,0.30231
5037.88,0.30167
5032.1,0.30301
5026.31,0.30354
5020.52,0.30383
5014.74,0.30430
5008.95,0.30482
5003.17,0.30568
4997.38,0.30559
4991.59,0.30428
4985.81,0.30420
4980.02,0.30255
4974.23,0.30220
4968.45,0.30147
4962.66,0.29983
4956.88,0.29842
4951.09,0.29819
4945.3,0.29535
4939.52,0.29437
4933.73,0.29264
4927.94,0.29039
4922.16,0.28856
4916.37,0.28664
4910.59,0.28465
4904.8,0.28115
4899.01,0.27847
4893.23,0.27740
4887.44,0.27559
4881.65,0.27241
4875.87,0.27072
4870.08,0.26888
4864.3,0.26709
4858.51,0.26471
4852.72,0.26417
4846.94,0.26200
4841.15,0.26054
4835.36,0.25961
4829.58,0.25764
4823.79,0.25626
4818.01,0.25502
4812.22,0.25463
4806.43,0.25280
4800.65,0.25152
4794.86,0.25202
4789.07,0.25200
4783.29,0.25106
4777.5,0.25082
4771.72,0.24968
4765.93,0.24952
4760.14,0.24840
4754.36,0.24844
4748.57,0.24809
4742.78,0.24967
4737,0.24927
4731.21,0.25011
4725.43,0.24991
4719.64,0.24938
4713.85,0.24989
4708.07,0.25104
4702.28,0.25154
4696.49,0.25175
4690.71,0.25262
4684.92,0.25302
4679.14,0.25340
4673.35,0.25390
4667.56,0.25472
4661.78,0.25522
4655.99,0.25720
4650.2,0.25790
4644.42,0.25918
4638.63,0.26007
4632.85,0.26131
4627.06,0.26243
4621.27,0.26209
4615.49,0.26296
4609.7,0.26539
4603.92,0.26609
4598.13,0.26708
4592.34,0.26810
4586.56,0.26840
4580.77,0.26905
4574.98,0.26831
4569.2,0.26923
4563.41,0.26978
4557.63,0.26994
4551.84,0.27086
4546.05,0.27102
4540.27,0.27049
4534.48,0.27093
4528.69,0.27054
4522.91,0.27026
4517.12,0.27039
4511.34,0.26988
4505.55,0.26917
4499.76,0.26659
4493.98,0.26462
4488.19,0.26313
4482.4,0.26019
4476.62,0.25685
4470.83,0.25370
4465.05,0.24903
4459.26,0.24466
4453.47,0.24158
4447.69,0.23762
4441.9,0.23274
4436.11,0.22989
4430.33,0.22570
4424.54,0.22253
4418.76,0.21851
4412.97,0.21613
4407.18,0.21358
4401.4,0.21059
4395.61,0.20917
4389.82,0.20731
4384.04,0.20701
4378.25,0.20550
4372.47,0.20355
4366.68,0.20203
4360.89,0.20097
4355.11,0.19799
4349.32,0.19199
4343.53,0.18579
4337.75,0.18018
4331.96,0.17464
4326.18,0.16641
4320.39,0.16436
4314.6,0.17743
4308.82,0.18806
4303.03,0.19209
4297.24,0.19250
4291.46,0.19225
4285.67,0.19157
4279.89,0.18919
4274.1,0.18829
4268.31,0.18591
4262.53,0.18119
4256.74,0.17482
4250.95,0.17077
4245.17,0.17782
4239.38,0.18462
4233.6,0.18619
4227.81,0.18545
4222.02,0.18319
4216.24,0.18235
4210.45,0.18297
4204.66,0.18197
4198.88,0.17935
4193.09,0.17813
4187.31,0.17837
4181.52,0.17876
4175.73,0.17958
4169.95,0.17979
4164.16,0.17932
4158.37,0.17977
4152.59,0.17937
4146.8,0.17946
4141.02,0.17929
4135.23,0.17928
4129.44,0.17869
4123.66,0.17803
4117.87,0.17721
4112.09,0.17575
4106.3,0.17475
4100.51,0.17349
4094.73,0.17250
4088.94,0.17290
4083.15,0.17452
4077.37,0.17375
4071.58,0.17279
4065.8,0.17141
4060.01,0.17099
4054.22,0.17047
4048.44,0.16904
4042.65,0.16803
4036.86,0.16727
4031.08,0.16641
4025.29,0.16553
4019.51,0.16513
4013.72,0.16649
4007.93,0.16728
4002.15,0.16798
3996.36,0.16838
3990.57,0.16897
3984.79,0.16938
3979,0.16977
3973.22,0.16953
3967.43,0.17119
3961.64,0.17216
3955.86,0.17298
3950.07,0.17377
3944.28,0.17372
3938.5,0.17478
3932.71,0.17525
3926.93,0.17544
3921.14,0.17661
3915.35,0.17744
3909.57,0.17780
3903.78,0.17836
3897.99,0.17943
3892.21,0.18019
3886.42,0.18111
3880.64,0.18142
3874.85,0.18144
3869.06,0.18256
3863.28,0.18472
3857.49,0.18637
3851.7,0.18744
3845.92,0.18780
3840.13,0.18774
3834.35,0.18918
3828.56,0.18873
3822.77,0.18850
3816.99,0.18826
3811.2,0.18850
3805.41,0.18919
3799.63,0.18979
3793.84,0.18955
3788.06,0.18968
3782.27,0.18940
3776.48,0.18896
3770.7,0.18803
3764.91,0.18730
3759.12,0.18672
3753.34,0.18620
3747.55,0.18578
3741.77,0.18443
3735.98,0.18245
3730.19,0.18071
3724.41,0.17899
3718.62,0.17630
3712.83,0.17363
3707.05,0.17022
3701.26,0.16649
3695.48,0.16205
3689.69,0.15753
3683.9,0.15129
3678.12,0.14502
3672.33,0.13816
3666.54,0.13192
3660.76,0.12623
3654.97,0.12115
3649.19,0.11599
3643.4,0.11125
3637.61,0.10820
3631.83,0.10421
3626.04,0.10149
3620.25,0.09843
3614.47,0.09500
3608.68,0.09113
3602.9,0.08853
3597.11,0.08605
3591.32,0.08315
3585.54,0.08198
3579.75,0.07983
3573.97,0.07770
3568.18,0.07584
3562.39,0.07458
3556.61,0.07301
3550.82,0.07086
3545.03,0.06997
3539.25,0.06837
3533.46,0.06768
3527.68,0.06663
3521.89,0.06545
3516.1,0.06436
3510.32,0.06428
3504.53,0.06292
3498.74,0.06311
3492.96,0.06202
3487.17,0.06163
3481.39,0.06124
3475.6,0.06094
3469.81,0.05999
3464.03,0.05979
3458.24,0.05947
3452.45,0.05906
3446.67,0.05860
3440.88,0.05846
3435.1,0.05856
3429.31,0.05890
3423.52,0.05811
3417.74,0.05848
3411.95,0.05840
3406.16,0.05790
3400.38,0.05811
3394.59,0.05759
3388.81,0.05778
3383.02,0.05778
3377.23,0.05802
3371.45,0.05767
3365.66,0.05718
3359.87,0.05762
3354.09,0.05759
3348.3,0.05809
3342.52,0.05769
3336.73,0.05783
3330.94,0.05917
3325.16,0.05897
3319.37,0.05959
3313.58,0.05969
3307.8,0.05980
3302.01,0.06007
3296.23,0.06066
3290.44,0.06160
3284.65,0.06175
3278.87,0.06245
3273.08,0.06284
3267.29,0.06352
3261.51,0.06378
3255.72,0.06459
3249.94,0.06540
3244.15,0.06536
3238.36,0.06640
3232.58,0.06827
3226.79,0.06798
3221,0.06844
3215.22,0.06907
3209.43,0.06894
3203.65,0.07076
3197.86,0.07159
3192.07,0.07239
3186.29,0.07252
3180.5,0.07415
3174.71,0.07442
3168.93,0.07542
3163.14,0.07634
3157.36,0.07634
3151.57,0.07732
3145.78,0.07786
3140,0.07917
3134.21,0.07999
3128.42,0.08042
3122.64,0.08071
3116.85,0.08180
3111.07,0.08284
3105.28,0.08250
3099.49,0.08303
3093.71,0.08358
3087.92,0.08375
3082.14,0.08422
3076.35,0.08375
3070.56,0.08425
3064.78,0.08414
3058.99,0.08503
3053.2,0.08552
3047.42,0.08538
3041.63,0.08567
3035.85,0.08533
3030.06,0.08423
3024.27,0.08340
3018.49,0.08235
3012.7,0.08074
3006.91,0.07851
3001.13,0.07752
2995.34,0.07555
2989.56,0.07328
2983.77,0.07070
2977.98,0.06601
2972.2,0.06077
2966.41,0.05615
2960.62,0.05361
2954.84,0.05128
2949.05,0.04884
2943.27,0.04613
2937.48,0.04283
2931.69,0.04156
2925.91,0.04233
2920.12,0.04772
2914.33,0.05313
2908.55,0.05279
2902.76,0.05318
2896.98,0.05394
2891.19,0.05501
2885.4,0.05612
2879.62,0.05699
2873.83,0.05731
2868.04,0.05607
2862.26,0.05332
2856.47,0.04941
2850.69,0.05200
2844.9,0.06020
2839.11,0.06731
2833.33,0.07267
2827.54,0.07689
2821.75,0.08025
2815.97,0.08292
2810.18,0.08521
2804.4,0.08643
2798.61,0.08845
2792.82,0.08987
2787.04,0.09101
2781.25,0.09225
2775.46,0.09352
2769.68,0.09390
2763.89,0.09450
2758.11,0.09490
2752.32,0.09522
2746.53,0.09523
2740.75,0.09476
2734.96,0.09509
2729.17,0.09545
2723.39,0.09575
2717.6,0.09636
2711.82,0.09662
2706.03,0.09771
2700.24,0.09862
2694.46,0.09897
2688.67,0.09947
2682.88,0.09953
2677.1,0.09978
2671.31,0.09968
2665.53,0.10041
2659.74,0.10040
2653.95,0.10056
2648.17,0.10096
2642.38,0.10128
2636.59,0.10257
2630.81,0.10184
2625.02,0.10318
2619.24,0.10451
2613.45,0.10524
2607.66,0.10621
2601.88,0.10710
2596.09,0.10764
2590.3,0.10791
2584.52,0.10883
2578.73,0.10916
2572.95,0.10965
2567.16,0.10991
2561.37,0.11042
2555.59,0.11070
2549.8,0.11071
2544.02,0.11145
2538.23,0.11193
2532.44,0.11213
2526.66,0.11241
2520.87,0.11338
2515.08,0.11405
2509.3,0.11429
2503.51,0.11521
2497.73,0.11613
2491.94,0.11683
2486.15,0.11742
2480.37,0.11819
2474.58,0.11854
2468.79,0.11922
2463.01,0.11997
2457.22,0.12070
2451.44,0.12162
2445.65,0.12145
2439.86,0.12267
2434.08,0.12245
2428.29,0.12361
2422.5,0.12434
2416.72,0.12477
2410.93,0.12579
2405.15,0.12717
2399.36,0.12788
2393.57,0.12882
2387.79,0.12960
2382,0.13007
2376.21,0.13046
2370.43,0.13100
2364.64,0.13146
2358.86,0.13132
2353.07,0.13071
2347.28,0.12997
2341.5,0.13073
2335.71,0.13082
2329.92,0.13083
2324.14,0.13176
2318.35,0.13217
2312.57,0.13239
2306.78,0.13309
2300.99,0.13310
2295.21,0.13274
2289.42,0.13283
2283.63,0.13272
2277.85,0.13216
2272.06,0.13251
2266.28,0.13195
2260.49,0.13189
2254.7,0.13071
2248.92,0.13005
2243.13,0.12929
2237.34,0.12967
2231.56,0.13024
2225.77,0.13004
2219.99,0.13042
2214.2,0.13026
2208.41,0.13013
2202.63,0.12950
2196.84,0.12856
2191.05,0.12750
2185.27,0.12650
2179.48,0.12480
2173.7,0.12362
2167.91,0.12187
2162.12,0.12052
2156.34,0.11951
2150.55,0.11875
2144.76,0.11776
2138.98,0.11809
2133.19,0.11795
2127.41,0.11806
2121.62,0.11855
2115.83,0.11875
2110.05,0.11906
2104.26,0.11939
2098.47,0.11962
2092.69,0.11977
2086.9,0.12007
2081.12,0.11963
2075.33,0.11970
2069.54,0.11940
2063.76,0.11859
2057.97,0.11854
2052.19,0.11809
2046.4,0.11806
2040.61,0.11859
2034.83,0.11861
2029.04,0.11888
2023.25,0.11913
2017.47,0.11957
2011.68,0.12168
2005.9,0.12375
2000.11,0.12484
1994.32,0.12576
1988.54,0.12629
1982.75,0.12663
1976.96,0.12623
1971.18,0.12611
1965.39,0.12532
1959.61,0.12514
1953.82,0.12467
1948.03,0.12513
1942.25,0.12533
1936.46,0.12631
1930.67,0.12730
1924.89,0.12803
1919.1,0.12888
1913.32,0.12897
1907.53,0.12861
1901.74,0.12771
1895.96,0.12726
1890.17,0.12841
1884.38,0.12915
1878.6,0.12896
1872.81,0.12888
1867.03,0.12845
1861.24,0.12754
1855.45,0.12659
1849.67,0.12584
1843.88,0.12409
1838.09,0.12243
1832.31,0.12089
1826.52,0.11864
1820.74,0.11589
1814.95,0.11365
1809.16,0.11102
1803.38,0.10779
1797.59,0.10416
1791.8,0.10012
1786.02,0.09596
1780.23,0.09087
1774.45,0.08425
1768.66,0.07634
1762.87,0.06937
1757.09,0.06338
1751.3,0.05949
1745.51,0.05735
1739.73,0.05666
1733.94,0.05853
1728.16,0.05947
1722.37,0.06168
1716.58,0.06391
1710.8,0.06586
1705.01,0.06865
1699.22,0.06990
1693.44,0.07002
1687.65,0.06937
1681.87,0.06768
1676.08,0.06622
1670.29,0.06440
1664.51,0.06297
1658.72,0.06249
1652.93,0.06324
1647.15,0.06304
1641.36,0.06274
1635.58,0.06281
1629.79,0.06221
1624,0.06116
1618.22,0.06044
1612.43,0.05956
1606.64,0.05835
1600.86,0.05731
1595.07,0.05602
1589.29,0.05768
1583.5,0.06125
1577.71,0.06450
1571.93,0.06833
1566.14,0.07068
1560.35,0.07188
1554.57,0.07153
1548.78,0.07137
1543,0.07096
1537.21,0.06968
1531.42,0.06778
1525.64,0.06450
1519.85,0.06009
1514.07,0.05648
1508.28,0.05458
1502.49,0.05494
1496.71,0.05633
1490.92,0.05742
1485.13,0.05673
1479.35,0.05286
1473.56,0.04460
1467.78,0.04265
1461.99,0.04371
1456.2,0.04715
1450.42,0.04914
1444.63,0.04998
1438.84,0.04994
1433.06,0.05024
1427.27,0.05072
1421.49,0.05166
1415.7,0.05271
1409.91,0.05357
1404.13,0.05316
1398.34,0.05280
1392.55,0.05244
1386.77,0.05085
1380.98,0.04887
1375.2,0.04799
1369.41,0.04842
1363.62,0.04998
1357.84,0.05043
1352.05,0.05034
1346.26,0.05004
1340.48,0.04961
1334.69,0.04937
1328.91,0.04983
1323.12,0.04990
1317.33,0.05002
1311.55,0.05012
1305.76,0.05069
1299.97,0.05094
1294.19,0.05048
1288.4,0.04970
1282.62,0.04894
1276.83,0.04834
1271.04,0.04700
1265.26,0.04478
1259.47,0.04453
1253.68,0.04675
1247.9,0.04692
1242.11,0.04686
1236.33,0.04728
1230.54,0.04734
1224.75,0.04854
1218.97,0.04922
1213.18,0.04918
1207.39,0.04908
1201.61,0.04924
1195.82,0.04888
1190.04,0.04820
1184.25,0.04783
1178.46,0.04633
1172.68,0.04579
1166.89,0.04552
1161.1,0.04586
1155.32,0.04541
1149.53,0.04512
1143.75,0.04352
1137.96,0.04313
1132.17,0.04254
1126.39,0.04294
1120.6,0.04306
1114.81,0.04334
1109.03,0.04384
1103.24,0.04340
1097.46,0.04318
1091.67,0.04339
1085.88,0.04411
1080.1,0.04460
1074.31,0.04641
1068.52,0.04830
1062.74,0.05085
1056.95,0.05327
1051.17,0.05393
1045.38,0.05396
1039.59,0.05416
1033.81,0.05600
1028.02,0.05609
1022.24,0.05650
1016.45,0.05724
1010.66,0.05901
1004.88,0.05937
999.09,0.05973
993.304,0.06009
987.518,0.06215
981.731,0.06336
975.945,0.06423
970.159,0.06553
964.373,0.06679
958.586,0.06787
952.8,0.06951
947.014,0.07084
941.228,0.07100
935.441,0.07015
929.655,0.06881
923.869,0.06799
918.083,0.06674
912.297,0.06574
906.51,0.06394
900.724,0.06236
894.938,0.06198
889.152,0.06392
883.365,0.06459
877.579,0.06511
871.793,0.06470
866.007,0.06482
860.22,0.06474
854.434,0.06485
848.648,0.06340
842.862,0.06239
837.075,0.06241
831.289,0.06064
825.503,0.05894
819.717,0.05768
813.931,0.05762
808.144,0.05634
802.358,0.05646
796.572,0.05704
790.786,0.05881
784.999,0.05868
779.213,0.05912
773.427,0.05779
767.641,0.05620
761.854,0.05638
756.068,0.05501
750.282,0.05440
744.496,0.05363
738.709,0.05284
732.923,0.04940
727.137,0.04843
721.351,0.04648
715.565,0.04942
709.778,0.04995
703.992,0.05089
698.206,0.04965
692.42,0.04929
686.633,0.04887
680.847,0.04781
675.061,0.04673
669.275,0.04708
663.488,0.04768
657.702,0.04760
651.916,0.04608
646.13,0.04434
640.343,0.04605
634.557,0.04421
628.771,0.04371
622.985,0.04495
617.198,0.04526
611.412,0.04587
605.626,0.04604
599.84,0.04510