File: 01_Data/Composite_Deck_Board/FTIR/IS/Composite_Deck_Board_IS_S_220928_R5.dpt
7497.03,0.39806
7491.25,0.40272
7485.46,0.39687
7479.67,0.39708
7473.89,0.40340
7468.1,0.39420
7462.32,0.39740
7456.53,0.39866
7450.74,0.38768
7444.96,0.39842
7439.17,0.40042
7433.38,0.39646
7427.6,0.38878
7421.81,0.39893
7416.03,0.39073
7410.24,0.39912
7404.45,0.38515
7398.67,0.39366
7392.88,0.39727
7387.09,0.39709
7381.31,0.39226
7375.52,0.38878
7369.74,0.38761
7363.95,0.39226
7358.16,0.38714
7352.38,0.39206
7346.59,0.39428
7340.8,0.38806
7335.02,0.38623
7329.23,0.38763
7323.45,0.38737
7317.66,0.39004
7311.87,0.39027
7306.09,0.38716
7300.3,0.38692
7294.51,0.38952
7288.73,0.39077
7282.94,0.38190
7277.16,0.38422
7271.37,0.38586
7265.58,0.38238
7259.8,0.38356
7254.01,0.38375
7248.22,0.38649
7242.44,0.38469
7236.65,0.38430
7230.87,0.38319
7225.08,0.38721
7219.29,0.38439
7213.51,0.37901
7207.72,0.37647
7201.93,0.37571
7196.15,0.37911
7190.36,0.37127
7184.58,0.37242
7178.79,0.37351
7173,0.36493
7167.22,0.37379
7161.43,0.37841
7155.65,0.37432
7149.86,0.36708
7144.07,0.37218
7138.29,0.37358
7132.5,0.36927
7126.71,0.36872
7120.93,0.36387
7115.14,0.37214
7109.36,0.36729
7103.57,0.36566
7097.78,0.35990
7092,0.36812
7086.21,0.36264
7080.42,0.35836
7074.64,0.35635
7068.85,0.36079
7063.07,0.35239
7057.28,0.35492
7051.49,0.35193
7045.71,0.35271
7039.92,0.34728
7034.13,0.34927
7028.35,0.34581
7022.56,0.34410
7016.78,0.34000
7010.99,0.34445
7005.2,0.33940
6999.42,0.33946
6993.63,0.34230
6987.84,0.33754
6982.06,0.33679
6976.27,0.33928
6970.49,0.33173
6964.7,0.33459
6958.91,0.33202
6953.13,0.33225
6947.34,0.32537
6941.55,0.33050
6935.77,0.33364
6929.98,0.33240
6924.2,0.33089
6918.41,0.32776
6912.62,0.33556
6906.84,0.33608
6901.05,0.33401
6895.26,0.33748
6889.48,0.33828
6883.69,0.33305
6877.91,0.33034
6872.12,0.32757
6866.33,0.32869
6860.55,0.33439
6854.76,0.33534
6848.97,0.33482
6843.19,0.33569
6837.4,0.33392
6831.62,0.33172
6825.83,0.33688
6820.04,0.33255
6814.26,0.32644
6808.47,0.33193
6802.68,0.33057
6796.9,0.33686
6791.11,0.33320
6785.33,0.33377
6779.54,0.33305
6773.75,0.33669
6767.97,0.33863
6762.18,0.33999
6756.39,0.33654
6750.61,0.33892
6744.82,0.33869
6739.04,0.33201
6733.25,0.33174
6727.46,0.33682
6721.68,0.33348
6715.89,0.33572
6710.1,0.33946
6704.32,0.33978
6698.53,0.33446
6692.75,0.33666
6686.96,0.33601
6681.17,0.34327
6675.39,0.34136
6669.6,0.33898
6663.82,0.34143
6658.03,0.34096
6652.24,0.34150
6646.46,0.34222
6640.67,0.34223
6634.88,0.34392
6629.1,0.34043
6623.31,0.34372
6617.53,0.34363
6611.74,0.34211
6605.95,0.34505
6600.17,0.34785
6594.38,0.34629
6588.59,0.34791
6582.81,0.34547
6577.02,0.34168
6571.24,0.34764
6565.45,0.34828
6559.66,0.34492
6553.88,0.35190
6548.09,0.35033
6542.3,0.35177
6536.52,0.34606
6530.73,0.34869
6524.95,0.34888
6519.16,0.34665
6513.37,0.34388
6507.59,0.34676
6501.8,0.34826
6496.01,0.34831
6490.23,0.34633
6484.44,0.34430
6478.66,0.34787
6472.87,0.34613
6467.08,0.34737
6461.3,0.34720
6455.51,0.34623
6449.72,0.34918
6443.94,0.34988
6438.15,0.34838
6432.37,0.35017
6426.58,0.34939
6420.79,0.34988
6415.01,0.35093
6409.22,0.35158
6403.43,0.35003
6397.65,0.34935
6391.86,0.34970
6386.08,0.35477
6380.29,0.35499
6374.5,0.34808
6368.72,0.35071
6362.93,0.35260
6357.14,0.34857
6351.36,0.35224
6345.57,0.35346
6339.79,0.35559
6334,0.35334
6328.21,0.35075
6322.43,0.35180
6316.64,0.35235
6310.85,0.35547
6305.07,0.35051
6299.28,0.34956
6293.5,0.35451
6287.71,0.35333
6281.92,0.35610
6276.14,0.35278
6270.35,0.35266
6264.56,0.35491
6258.78,0.35457
6252.99,0.35739
6247.21,0.35332
6241.42,0.35652
6235.63,0.35776
6229.85,0.35712
6224.06,0.35683
6218.27,0.35730
6212.49,0.35867
6206.7,0.36162
6200.92,0.35645
6195.13,0.36062
6189.34,0.36190
6183.56,0.36177
6177.77,0.35999
6171.98,0.36308
6166.2,0.36283
6160.41,0.36426
6154.63,0.36168
6148.84,0.36358
6143.05,0.36348
6137.27,0.36006
6131.48,0.36392
6125.7,0.36263
6119.91,0.36168
6114.12,0.36397
6108.34,0.36451
6102.55,0.36327
6096.76,0.36486
6090.98,0.36552
6085.19,0.36406
6079.41,0.36393
6073.62,0.36444
6067.83,0.36516
6062.05,0.36083
6056.26,0.36238
6050.47,0.36317
6044.69,0.36434
6038.9,0.36346
6033.12,0.36190
6027.33,0.35929
6021.54,0.35904
6015.76,0.35614
6009.97,0.35681
6004.18,0.35869
5998.4,0.35426
5992.61,0.35678
5986.83,0.35597
5981.04,0.35533
5975.25,0.35485
5969.47,0.35340
5963.68,0.35109
5957.89,0.35121
5952.11,0.35079
5946.32,0.35093
5940.54,0.34999
5934.75,0.35218
5928.96,0.34934
5923.18,0.34683
5917.39,0.34560
5911.6,0.34514
5905.82,0.34262
5900.03,0.34072
5894.25,0.33996
5888.46,0.34061
5882.67,0.34010
5876.89,0.33732
5871.1,0.33270
5865.31,0.32829
5859.53,0.32842
5853.74,0.32243
5847.96,0.31889
5842.17,0.31818
5836.38,0.31467
5830.6,0.31176
5824.81,0.30660
5819.02,0.30679
5813.24,0.30005
5807.45,0.29809
5801.67,0.29375
5795.88,0.28939
5790.09,0.28584
5784.31,0.27863
5778.52,0.27211
5772.73,0.27125
5766.95,0.27999
5761.16,0.28859
5755.38,0.29803
5749.59,0.30561
5743.8,0.30901
5738.02,0.31488
5732.23,0.31493
5726.44,0.32027
5720.66,0.32126
5714.87,0.32288
5709.09,0.32068
5703.3,0.32049
5697.51,0.31796
5691.73,0.31609
5685.94,0.31226
5680.15,0.31094
5674.37,0.30480
5668.58,0.30304
5662.8,0.30265
5657.01,0.30503
5651.22,0.31269
5645.44,0.31737
5639.65,0.31643
5633.87,0.31974
5628.08,0.32320
5622.29,0.32224
5616.51,0.32185
5610.72,0.32277
5604.93,0.32507
5599.15,0.32433
5593.36,0.32683
5587.58,0.32609
5581.79,0.32588
5576,0.32622
5570.22,0.32420
5564.43,0.32464
5558.64,0.32420
5552.86,0.32269
5547.07,0.32247
5541.29,0.32490
5535.5,0.32250
5529.71,0.32404
5523.93,0.32700
5518.14,0.32588
5512.35,0.32432
5506.57,0.32491
5500.78,0.32413
5495,0.32395
5489.21,0.32327
5483.42,0.32296
5477.64,0.32476
5471.85,0.32627
5466.06,0.32676
5460.28,0.32722
5454.49,0.32607
5448.71,0.32792
5442.92,0.32889
5437.13,0.32917
5431.35,0.33021
5425.56,0.33041
5419.77,0.33162
5413.99,0.33363
5408.2,0.33248
5402.42,0.33351
5396.63,0.33293
5390.84,0.33534
5385.06,0.33478
5379.27,0.33572
5373.48,0.33562
5367.7,0.33708
5361.91,0.33657
5356.13,0.33561
5350.34,0.33750
5344.55,0.33619
5338.77,0.33706
5332.98,0.33632
5327.19,0.33404
5321.41,0.33247
5315.62,0.33287
5309.84,0.33061
5304.05,0.32929
5298.26,0.32568
5292.48,0.32317
5286.69,0.31881
5280.9,0.31584
5275.12,0.31223
5269.33,0.30679
5263.55,0.30088
5257.76,0.29624
5251.97,0.29219
5246.19,0.28715
5240.4,0.28290
5234.61,0.28120
5228.83,0.27695
5223.04,0.27473
5217.26,0.27387
5211.47,0.27374
5205.68,0.27246
5199.9,0.27099
5194.11,0.27126
5188.32,0.27163
5182.54,0.27139
5176.75,0.27251
5170.97,0.27365
5165.18,0.27370
5159.39,0.27535
5153.61,0.27654
5147.82,0.27987
5142.03,0.27974
5136.25,0.28262
5130.46,0.28280
5124.68,0.28383
5118.89,0.28527
5113.1,0.28755
5107.32,0.28873
5101.53,0.28956
5095.75,0.29061
5089.96,0.29239
5084.17,0.29459
5078.39,0.29488
5072.6,0.29566
5066.81,0.29628
5061.03,0.29814
5055.24,0.30003
5049.46,0.29985
5043.67,0.30080
5037.88,0.30222
5032.1,0.30286
5026.31,0.30280
5020.52,0.30442
5014.74,0.30459
5008.95,0.30559
5003.17,0.30486
4997.38,0.30469
4991.59,0.30361
4985.81,0.30219
4980.02,0.30157
4974.23,0.30205
4968.45,0.30045
4962.66,0.29948
4956.88,0.29796
4951.09,0.29748
4945.3,0.29604
4939.52,0.29405
4933.73,0.29177
4927.94,0.29041
4922.16,0.28736
4916.37,0.28483
4910.59,0.28301
4904.8,0.28156
4899.01,0.27883
4893.23,0.27631
4887.44,0.27387
4881.65,0.27184
4875.87,0.26924
4870.08,0.26734
4864.3,0.26554
4858.51,0.26381
4852.72,0.26254
4846.94,0.26074
4841.15,0.25922
4835.36,0.25822
4829.58,0.25730
4823.79,0.25519
4818.01,0.25465
4812.22,0.25327
4806.43,0.25288
4800.65,0.25199
4794.86,0.25140
4789.07,0.25011
4783.29,0.24952
4777.5,0.24948
4771.72,0.24866
4765.93,0.24915
4760.14,0.24896
4754.36,0.24931
4748.57,0.24867
4742.78,0.24903
4737,0.24898
4731.21,0.24917
4725.43,0.24829
4719.64,0.24897
4713.85,0.24897
4708.07,0.25012
4702.28,0.24956
4696.49,0.24969
4690.71,0.25087
4684.92,0.25180
4679.14,0.25247
4673.35,0.25333
4667.56,0.25356
4661.78,0.25526
4655.99,0.25661
4650.2,0.25826
4644.42,0.25830
4638.63,0.25984
4632.85,0.26095
4627.06,0.26161
4621.27,0.26239
4615.49,0.26301
4609.7,0.26439
4603.92,0.26569
4598.13,0.26594
4592.34,0.26622
4586.56,0.26738
4580.77,0.26713
4574.98,0.26722
4569.2,0.26900
4563.41,0.26979
4557.63,0.27007
4551.84,0.27002
4546.05,0.27034
4540.27,0.26871
4534.48,0.26952
4528.69,0.27067
4522.91,0.27011
4517.12,0.26879
4511.34,0.26868
4505.55,0.26764
4499.76,0.26637
4493.98,0.26377
4488.19,0.26213
4482.4,0.25895
4476.62,0.25574
4470.83,0.25197
4465.05,0.24945
4459.26,0.24582
4453.47,0.24157
4447.69,0.23680
4441.9,0.23274
4436.11,0.22875
4430.33,0.22574
4424.54,0.22190
4418.76,0.21849
4412.97,0.21520
4407.18,0.21274
4401.4,0.21081
4395.61,0.20857
4389.82,0.20721
4384.04,0.20531
4378.25,0.20464
4372.47,0.20345
4366.68,0.20177
4360.89,0.19962
4355.11,0.19554
4349.32,0.19089
4343.53,0.18440
4337.75,0.17919
4331.96,0.17459
4326.18,0.16549
4320.39,0.16361
4314.6,0.17636
4308.82,0.18729
4303.03,0.19194
4297.24,0.19354
4291.46,0.19198
4285.67,0.19031
4279.89,0.19017
4274.1,0.18805
4268.31,0.18591
4262.53,0.18068
4256.74,0.17400
4250.95,0.17006
4245.17,0.17700
4239.38,0.18442
4233.6,0.18552
4227.81,0.18437
4222.02,0.18222
4216.24,0.18272
4210.45,0.18315
4204.66,0.18235
4198.88,0.18007
4193.09,0.17849
4187.31,0.17777
4181.52,0.17952
4175.73,0.17934
4169.95,0.17904
4164.16,0.17908
4158.37,0.17925
4152.59,0.17901
4146.8,0.17886
4141.02,0.17902
4135.23,0.17918
4129.44,0.17781
4123.66,0.17793
4117.87,0.17661
4112.09,0.17536
4106.3,0.17457
4100.51,0.17262
4094.73,0.17232
4088.94,0.17254
4083.15,0.17333
4077.37,0.17375
4071.58,0.17310
4065.8,0.17164
4060.01,0.17080
4054.22,0.16963
4048.44,0.16876
4042.65,0.16777
4036.86,0.16734
4031.08,0.16689
4025.29,0.16599
4019.51,0.16506
4013.72,0.16590
4007.93,0.16762
4002.15,0.16750
3996.36,0.16842
3990.57,0.16831
3984.79,0.16860
3979,0.16923
3973.22,0.16931
3967.43,0.17083
3961.64,0.17122
3955.86,0.17232
3950.07,0.17289
3944.28,0.17426
3938.5,0.17471
3932.71,0.17445
3926.93,0.17478
3921.14,0.17649
3915.35,0.17630
3909.57,0.17739
3903.78,0.17808
3897.99,0.17943
3892.21,0.17968
3886.42,0.18011
3880.64,0.18093
3874.85,0.18185
3869.06,0.18284
3863.28,0.18442
3857.49,0.18569
3851.7,0.18659
3845.92,0.18703
3840.13,0.18768
3834.35,0.18827
3828.56,0.18856
3822.77,0.18907
3816.99,0.18883
3811.2,0.18875
3805.41,0.18970
3799.63,0.18970
3793.84,0.18953
3788.06,0.18979
3782.27,0.18934
3776.48,0.18903
3770.7,0.18873
3764.91,0.18803
3759.12,0.18755
3753.34,0.18684
3747.55,0.18564
3741.77,0.18521
3735.98,0.18385
3730.19,0.18173
3724.41,0.17956
3718.62,0.17676
3712.83,0.17427
3707.05,0.17155
3701.26,0.16737
3695.48,0.16294
3689.69,0.15814
3683.9,0.15335
3678.12,0.14650
3672.33,0.14059
3666.54,0.13343
3660.76,0.12760
3654.97,0.12229
3649.19,0.11795
3643.4,0.11273
3637.61,0.10843
3631.83,0.10574
3626.04,0.10264
3620.25,0.09898
3614.47,0.09532
3608.68,0.09171
3602.9,0.08899
3597.11,0.08699
3591.32,0.08467
3585.54,0.08236
3579.75,0.07968
3573.97,0.07742
3568.18,0.07618
3562.39,0.07420
3556.61,0.07284
3550.82,0.07084
3545.03,0.06969
3539.25,0.06870
3533.46,0.06824
3527.68,0.06631
3521.89,0.06599
3516.1,0.06494
3510.32,0.06397
3504.53,0.06329
3498.74,0.06303
3492.96,0.06174
3487.17,0.06186
3481.39,0.06067
3475.6,0.06031
3469.81,0.05990
3464.03,0.05971
3458.24,0.05916
3452.45,0.05808
3446.67,0.05865
3440.88,0.05840
3435.1,0.05810
3429.31,0.05742
3423.52,0.05814
3417.74,0.05872
3411.95,0.05785
3406.16,0.05759
3400.38,0.05801
3394.59,0.05761
3388.81,0.05764
3383.02,0.05778
3377.23,0.05762
3371.45,0.05852
3365.66,0.05803
3359.87,0.05771
3354.09,0.05772
3348.3,0.05849
3342.52,0.05915
3336.73,0.05822
3330.94,0.05822
3325.16,0.05935
3319.37,0.05906
3313.58,0.06001
3307.8,0.06100
3302.01,0.06064
3296.23,0.06087
3290.44,0.06028
3284.65,0.06127
3278.87,0.06146
3273.08,0.06298
3267.29,0.06327
3261.51,0.06445
3255.72,0.06432
3249.94,0.06591
3244.15,0.06557
3238.36,0.06627
3232.58,0.06717
3226.79,0.06872
3221,0.06824
3215.22,0.06942
3209.43,0.06971
3203.65,0.07086
3197.86,0.07154
3192.07,0.07279
3186.29,0.07284
3180.5,0.07394
3174.71,0.07436
3168.93,0.07538
3163.14,0.07652
3157.36,0.07690
3151.57,0.07803
3145.78,0.07869
3140,0.07966
3134.21,0.08069
3128.42,0.08039
3122.64,0.08085
3116.85,0.08149
3111.07,0.08303
3105.28,0.08277
3099.49,0.08321
3093.71,0.08341
3087.92,0.08399
3082.14,0.08380
3076.35,0.08482
3070.56,0.08509
3064.78,0.08472
3058.99,0.08529
3053.2,0.08540
3047.42,0.08512
3041.63,0.08475
3035.85,0.08512
3030.06,0.08443
3024.27,0.08349
3018.49,0.08262
3012.7,0.08079
3006.91,0.07914
3001.13,0.07684
2995.34,0.07485
2989.56,0.07283
2983.77,0.07012
2977.98,0.06639
2972.2,0.06106
2966.41,0.05658
2960.62,0.05288
2954.84,0.05180
2949.05,0.04947
2943.27,0.04602
2937.48,0.04340
2931.69,0.04115
2925.91,0.04247
2920.12,0.04831
2914.33,0.05289
2908.55,0.05334
2902.76,0.05257
2896.98,0.05339
2891.19,0.05472
2885.4,0.05622
2879.62,0.05725
2873.83,0.05756
2868.04,0.05626
2862.26,0.05268
2856.47,0.04879
2850.69,0.05201
2844.9,0.06024
2839.11,0.06726
2833.33,0.07226
2827.54,0.07688
2821.75,0.08029
2815.97,0.08273
2810.18,0.08483
2804.4,0.08613
2798.61,0.08839
2792.82,0.08973
2787.04,0.09080
2781.25,0.09198
2775.46,0.09300
2769.68,0.09371
2763.89,0.09400
2758.11,0.09436
2752.32,0.09450
2746.53,0.09491
2740.75,0.09538
2734.96,0.09505
2729.17,0.09530
2723.39,0.09562
2717.6,0.09612
2711.82,0.09675
2706.03,0.09727
2700.24,0.09824
2694.46,0.09896
2688.67,0.09925
2682.88,0.09924
2677.1,0.09983
2671.31,0.09997
2665.53,0.09982
2659.74,0.10017
2653.95,0.10048
2648.17,0.10109
2642.38,0.10136
2636.59,0.10175
2630.81,0.10224
2625.02,0.10345
2619.24,0.10403
2613.45,0.10519
2607.66,0.10577
2601.88,0.10661
2596.09,0.10682
2590.3,0.10733
2584.52,0.10840
2578.73,0.10864
2572.95,0.10936
2567.16,0.10988
2561.37,0.11011
2555.59,0.11045
2549.8,0.11046
2544.02,0.11091
2538.23,0.11152
2532.44,0.11129
2526.66,0.11190
2520.87,0.11259
2515.08,0.11390
2509.3,0.11409
2503.51,0.11478
2497.73,0.11589
2491.94,0.11692
2486.15,0.11704
2480.37,0.11813
2474.58,0.11835
2468.79,0.11925
2463.01,0.11990
2457.22,0.12039
2451.44,0.12067
2445.65,0.12135
2439.86,0.12208
2434.08,0.12304
2428.29,0.12327
2422.5,0.12392
2416.72,0.12441
2410.93,0.12545
2405.15,0.12692
2399.36,0.12749
2393.57,0.12854
2387.79,0.12908
2382,0.12991
2376.21,0.13028
2370.43,0.13085
2364.64,0.13121
2358.86,0.13093
2353.07,0.13043
2347.28,0.13024
2341.5,0.13014
2335.71,0.13068
2329.92,0.13067
2324.14,0.13133
2318.35,0.13172
2312.57,0.13226
2306.78,0.13314
2300.99,0.13275
2295.21,0.13244
2289.42,0.13274
2283.63,0.13267
2277.85,0.13231
2272.06,0.13251
2266.28,0.13192
2260.49,0.13131
2254.7,0.13096
2248.92,0.13008
2243.13,0.12946
2237.34,0.12939
2231.56,0.12999
2225.77,0.13021
2219.99,0.13054
2214.2,0.13030
2208.41,0.13021
2202.63,0.12937
2196.84,0.12888
2191.05,0.12758
2185.27,0.12646
2179.48,0.12480
2173.7,0.12334
2167.91,0.12204
2162.12,0.12025
2156.34,0.11894
2150.55,0.11831
2144.76,0.11824
2138.98,0.11788
2133.19,0.11788
2127.41,0.11795
2121.62,0.11825
2115.83,0.11859
2110.05,0.11915
2104.26,0.11954
2098.47,0.11969
2092.69,0.11992
2086.9,0.12013
2081.12,0.11981
2075.33,0.11926
2069.54,0.11898
2063.76,0.11884
2057.97,0.11858
2052.19,0.11846
2046.4,0.11835
2040.61,0.11857
2034.83,0.11870
2029.04,0.11880
2023.25,0.11906
2017.47,0.11940
2011.68,0.12196
2005.9,0.12373
2000.11,0.12493
1994.32,0.12587
1988.54,0.12630
1982.75,0.12631
1976.96,0.12598
1971.18,0.12578
1965.39,0.12553
1959.61,0.12506
1953.82,0.12483
1948.03,0.12466
1942.25,0.12538
1936.46,0.12638
1930.67,0.12750
1924.89,0.12817
1919.1,0.12864
1913.32,0.12885
1907.53,0.12830
1901.74,0.12768
1895.96,0.12711
1890.17,0.12800
1884.38,0.12915
1878.6,0.12912
1872.81,0.12884
1867.03,0.12828
1861.24,0.12784
1855.45,0.12632
1849.67,0.12527
1843.88,0.12398
1838.09,0.12232
1832.31,0.12051
1826.52,0.11833
1820.74,0.11565
1814.95,0.11312
1809.16,0.11050
1803.38,0.10750
1797.59,0.10374
1791.8,0.10017
1786.02,0.09599
1780.23,0.09079
1774.45,0.08405
1768.66,0.07587
1762.87,0.06895
1757.09,0.06323
1751.3,0.05933
1745.51,0.05735
1739.73,0.05668
1733.94,0.05819
1728.16,0.05970
1722.37,0.06113
1716.58,0.06318
1710.8,0.06589
1705.01,0.06857
1699.22,0.06987
1693.44,0.06985
1687.65,0.06957
1681.87,0.06744
1676.08,0.06595
1670.29,0.06430
1664.51,0.06336
1658.72,0.06262
1652.93,0.06287
1647.15,0.06332
1641.36,0.06355
1635.58,0.06312
1629.79,0.06212
1624,0.06106
1618.22,0.06049
1612.43,0.05944
1606.64,0.05829
1600.86,0.05708
1595.07,0.05621
1589.29,0.05737
1583.5,0.06088
1577.71,0.06457
1571.93,0.06819
1566.14,0.07053
1560.35,0.07215
1554.57,0.07162
1548.78,0.07132
1543,0.07130
1537.21,0.06956
1531.42,0.06731
1525.64,0.06427
1519.85,0.05982
1514.07,0.05624
1508.28,0.05475
1502.49,0.05504
1496.71,0.05602
1490.92,0.05747
1485.13,0.05641
1479.35,0.05241
1473.56,0.04464
1467.78,0.04246
1461.99,0.04365
1456.2,0.04658
1450.42,0.04895
1444.63,0.05011
1438.84,0.05052
1433.06,0.05048
1427.27,0.05050
1421.49,0.05166
1415.7,0.05210
1409.91,0.05307
1404.13,0.05296
1398.34,0.05290
1392.55,0.05191
1386.77,0.05066
1380.98,0.04841
1375.2,0.04762
1369.41,0.04882
1363.62,0.04998
1357.84,0.05008
1352.05,0.04994
1346.26,0.05022
1340.48,0.04974
1334.69,0.04921
1328.91,0.04947
1323.12,0.04965
1317.33,0.04952
1311.55,0.04994
1305.76,0.05055
1299.97,0.05041
1294.19,0.05082
1288.4,0.04983
1282.62,0.04895
1276.83,0.04857
1271.04,0.04686
1265.26,0.04520
1259.47,0.04445
1253.68,0.04584
1247.9,0.04713
1242.11,0.04668
1236.33,0.04678
1230.54,0.04756
1224.75,0.04806
1218.97,0.04875
1213.18,0.04941
1207.39,0.04906
1201.61,0.04918
1195.82,0.04902
1190.04,0.04864
1184.25,0.04773
1178.46,0.04656
1172.68,0.04595
1166.89,0.04559
1161.1,0.04576
1155.32,0.04550
1149.53,0.04508
1143.75,0.04411
1137.96,0.04308
1132.17,0.04250
1126.39,0.04306
1120.6,0.04326
1114.81,0.04357
1109.03,0.04372
1103.24,0.04313
1097.46,0.04297
1091.67,0.04339
1085.88,0.04438
1080.1,0.04516
1074.31,0.04648
1068.52,0.04853
1062.74,0.05045
1056.95,0.05303
1051.17,0.05324
1045.38,0.05351
1039.59,0.05382
1033.81,0.05596
1028.02,0.05629
1022.24,0.05665
1016.45,0.05780
1010.66,0.05806
1004.88,0.05908
999.09,0.05955
993.304,0.06052
987.518,0.06177
981.731,0.06343
975.945,0.06492
970.159,0.06529
964.373,0.06666
958.586,0.06852
952.8,0.07013
947.014,0.07096
941.228,0.07105
935.441,0.06999
929.655,0.06888
923.869,0.06815
918.083,0.06595
912.297,0.06515
906.51,0.06392
900.724,0.06193
894.938,0.06252
889.152,0.06403
883.365,0.06529
877.579,0.06414
871.793,0.06498
866.007,0.06483
860.22,0.06572
854.434,0.06422
848.648,0.06409
842.862,0.06276
837.075,0.06178
831.289,0.06130
825.503,0.05873
819.717,0.05838
813.931,0.05706
808.144,0.05684
802.358,0.05660
796.572,0.05767
790.786,0.05969
784.999,0.05917
779.213,0.05853
773.427,0.05809
767.641,0.05756
761.854,0.05708
756.068,0.05529
750.282,0.05426
744.496,0.05326
738.709,0.05230
732.923,0.04932
727.137,0.04813
721.351,0.04755
715.565,0.05005
709.778,0.05135
703.992,0.04992
698.206,0.05038
692.42,0.04989
686.633,0.04982
680.847,0.04705
675.061,0.04769
669.275,0.04723
663.488,0.04811
657.702,0.04830
651.916,0.04635
646.13,0.04610
640.343,0.04767
634.557,0.04607
628.771,0.04400
622.985,0.04339
617.198,0.04554
611.412,0.04417
605.626,0.04617
599.84,0.04483