File: 01_Data/Composite_Deck_Board/FTIR/IS/Composite_Deck_Board_IS_S_220928_R7.dpt
7497.03,0.39394
7491.25,0.39577
7485.46,0.40988
7479.67,0.39343
7473.89,0.40323
7468.1,0.39422
7462.32,0.39663
7456.53,0.39231
7450.74,0.40112
7444.96,0.39834
7439.17,0.40263
7433.38,0.39881
7427.6,0.39360
7421.81,0.39758
7416.03,0.39212
7410.24,0.39613
7404.45,0.39442
7398.67,0.39600
7392.88,0.38771
7387.09,0.39170
7381.31,0.38735
7375.52,0.39319
7369.74,0.38754
7363.95,0.39632
7358.16,0.39592
7352.38,0.39641
7346.59,0.39542
7340.8,0.39459
7335.02,0.39855
7329.23,0.38895
7323.45,0.37913
7317.66,0.39176
7311.87,0.39064
7306.09,0.38502
7300.3,0.39114
7294.51,0.38207
7288.73,0.39092
7282.94,0.38425
7277.16,0.38580
7271.37,0.38193
7265.58,0.38583
7259.8,0.38897
7254.01,0.38986
7248.22,0.38227
7242.44,0.38067
7236.65,0.38711
7230.87,0.38468
7225.08,0.37879
7219.29,0.38012
7213.51,0.38496
7207.72,0.38425
7201.93,0.37819
7196.15,0.37710
7190.36,0.37484
7184.58,0.37879
7178.79,0.37881
7173,0.37195
7167.22,0.37033
7161.43,0.37685
7155.65,0.37405
7149.86,0.37680
7144.07,0.37670
7138.29,0.37530
7132.5,0.36991
7126.71,0.37328
7120.93,0.37815
7115.14,0.36961
7109.36,0.37063
7103.57,0.36475
7097.78,0.36917
7092,0.37120
7086.21,0.35964
7080.42,0.36036
7074.64,0.35126
7068.85,0.35549
7063.07,0.35606
7057.28,0.35511
7051.49,0.34878
7045.71,0.35035
7039.92,0.35199
7034.13,0.34935
7028.35,0.34285
7022.56,0.34339
7016.78,0.34027
7010.99,0.33950
7005.2,0.33957
6999.42,0.33710
6993.63,0.34498
6987.84,0.33658
6982.06,0.33852
6976.27,0.33924
6970.49,0.33948
6964.7,0.34097
6958.91,0.34222
6953.13,0.33490
6947.34,0.33520
6941.55,0.33190
6935.77,0.33183
6929.98,0.33481
6924.2,0.33400
6918.41,0.33347
6912.62,0.32878
6906.84,0.33182
6901.05,0.32996
6895.26,0.33381
6889.48,0.33588
6883.69,0.33416
6877.91,0.33467
6872.12,0.33380
6866.33,0.33738
6860.55,0.33309
6854.76,0.33478
6848.97,0.33724
6843.19,0.33369
6837.4,0.33693
6831.62,0.33490
6825.83,0.33609
6820.04,0.33231
6814.26,0.33141
6808.47,0.33091
6802.68,0.33311
6796.9,0.33623
6791.11,0.33921
6785.33,0.33374
6779.54,0.33483
6773.75,0.33333
6767.97,0.33563
6762.18,0.33879
6756.39,0.33597
6750.61,0.33958
6744.82,0.33803
6739.04,0.34082
6733.25,0.33794
6727.46,0.33898
6721.68,0.33819
6715.89,0.34102
6710.1,0.33813
6704.32,0.33988
6698.53,0.33829
6692.75,0.33747
6686.96,0.33434
6681.17,0.33969
6675.39,0.34062
6669.6,0.33832
6663.82,0.34432
6658.03,0.34289
6652.24,0.34048
6646.46,0.34281
6640.67,0.34130
6634.88,0.34288
6629.1,0.34342
6623.31,0.34331
6617.53,0.34399
6611.74,0.34743
6605.95,0.34337
6600.17,0.34699
6594.38,0.34457
6588.59,0.35012
6582.81,0.34329
6577.02,0.34623
6571.24,0.34724
6565.45,0.34637
6559.66,0.34910
6553.88,0.34756
6548.09,0.34717
6542.3,0.35179
6536.52,0.34998
6530.73,0.34807
6524.95,0.35010
6519.16,0.35053
6513.37,0.34938
6507.59,0.35404
6501.8,0.35158
6496.01,0.34936
6490.23,0.34676
6484.44,0.34595
6478.66,0.34692
6472.87,0.35113
6467.08,0.35142
6461.3,0.35155
6455.51,0.35276
6449.72,0.35131
6443.94,0.35053
6438.15,0.35255
6432.37,0.35229
6426.58,0.35071
6420.79,0.35312
6415.01,0.34810
6409.22,0.35400
6403.43,0.34920
6397.65,0.35478
6391.86,0.35245
6386.08,0.35203
6380.29,0.35157
6374.5,0.35023
6368.72,0.35178
6362.93,0.35354
6357.14,0.35419
6351.36,0.35431
6345.57,0.35085
6339.79,0.35428
6334,0.35053
6328.21,0.35179
6322.43,0.35464
6316.64,0.35362
6310.85,0.35396
6305.07,0.35883
6299.28,0.35443
6293.5,0.35198
6287.71,0.35310
6281.92,0.35692
6276.14,0.35519
6270.35,0.35750
6264.56,0.36086
6258.78,0.35764
6252.99,0.35919
6247.21,0.35699
6241.42,0.35963
6235.63,0.35900
6229.85,0.36136
6224.06,0.35903
6218.27,0.35939
6212.49,0.36165
6206.7,0.36074
6200.92,0.36533
6195.13,0.36143
6189.34,0.36440
6183.56,0.36367
6177.77,0.36006
6171.98,0.36491
6166.2,0.36396
6160.41,0.36492
6154.63,0.36624
6148.84,0.36598
6143.05,0.36677
6137.27,0.36489
6131.48,0.36526
6125.7,0.36478
6119.91,0.36394
6114.12,0.36497
6108.34,0.36564
6102.55,0.36428
6096.76,0.36456
6090.98,0.36424
6085.19,0.36355
6079.41,0.36422
6073.62,0.36385
6067.83,0.36577
6062.05,0.36279
6056.26,0.36427
6050.47,0.36332
6044.69,0.36122
6038.9,0.36089
6033.12,0.36217
6027.33,0.35980
6021.54,0.36216
6015.76,0.36042
6009.97,0.36008
6004.18,0.35685
5998.4,0.35752
5992.61,0.35813
5986.83,0.35842
5981.04,0.35534
5975.25,0.35568
5969.47,0.35517
5963.68,0.35536
5957.89,0.35678
5952.11,0.35227
5946.32,0.35331
5940.54,0.35291
5934.75,0.35221
5928.96,0.34964
5923.18,0.34858
5917.39,0.34603
5911.6,0.34391
5905.82,0.34579
5900.03,0.34563
5894.25,0.34355
5888.46,0.34330
5882.67,0.34125
5876.89,0.33667
5871.1,0.33495
5865.31,0.33279
5859.53,0.32988
5853.74,0.32695
5847.96,0.32213
5842.17,0.32069
5836.38,0.31755
5830.6,0.31350
5824.81,0.30937
5819.02,0.30772
5813.24,0.30353
5807.45,0.30007
5801.67,0.29605
5795.88,0.29070
5790.09,0.28412
5784.31,0.27986
5778.52,0.27487
5772.73,0.27498
5766.95,0.28264
5761.16,0.29128
5755.38,0.30181
5749.59,0.30546
5743.8,0.31387
5738.02,0.31423
5732.23,0.31781
5726.44,0.31890
5720.66,0.32189
5714.87,0.32363
5709.09,0.32050
5703.3,0.31924
5697.51,0.31924
5691.73,0.31742
5685.94,0.31523
5680.15,0.31443
5674.37,0.30856
5668.58,0.30287
5662.8,0.30210
5657.01,0.30612
5651.22,0.31451
5645.44,0.31845
5639.65,0.32215
5633.87,0.32298
5628.08,0.32082
5622.29,0.32351
5616.51,0.32494
5610.72,0.32567
5604.93,0.32634
5599.15,0.32532
5593.36,0.32723
5587.58,0.32742
5581.79,0.32638
5576,0.32671
5570.22,0.32607
5564.43,0.32523
5558.64,0.32528
5552.86,0.32772
5547.07,0.32490
5541.29,0.32712
5535.5,0.32591
5529.71,0.32601
5523.93,0.32641
5518.14,0.32484
5512.35,0.32494
5506.57,0.32750
5500.78,0.32747
5495,0.32605
5489.21,0.32585
5483.42,0.32833
5477.64,0.32803
5471.85,0.32805
5466.06,0.32958
5460.28,0.33034
5454.49,0.32845
5448.71,0.33052
5442.92,0.33147
5437.13,0.33137
5431.35,0.33162
5425.56,0.33244
5419.77,0.33158
5413.99,0.33323
5408.2,0.33605
5402.42,0.33563
5396.63,0.33645
5390.84,0.33529
5385.06,0.33847
5379.27,0.33835
5373.48,0.33780
5367.7,0.33954
5361.91,0.33832
5356.13,0.33990
5350.34,0.34053
5344.55,0.33981
5338.77,0.33815
5332.98,0.33865
5327.19,0.33736
5321.41,0.33539
5315.62,0.33535
5309.84,0.33477
5304.05,0.33052
5298.26,0.32931
5292.48,0.32571
5286.69,0.32168
5280.9,0.31930
5275.12,0.31422
5269.33,0.30915
5263.55,0.30430
5257.76,0.29914
5251.97,0.29391
5246.19,0.29050
5240.4,0.28774
5234.61,0.28416
5228.83,0.28017
5223.04,0.27881
5217.26,0.27555
5211.47,0.27514
5205.68,0.27573
5199.9,0.27425
5194.11,0.27412
5188.32,0.27272
5182.54,0.27475
5176.75,0.27532
5170.97,0.27777
5165.18,0.27664
5159.39,0.27777
5153.61,0.27917
5147.82,0.28275
5142.03,0.28377
5136.25,0.28474
5130.46,0.28647
5124.68,0.28814
5118.89,0.28835
5113.1,0.29014
5107.32,0.29111
5101.53,0.29241
5095.75,0.29301
5089.96,0.29432
5084.17,0.29663
5078.39,0.29751
5072.6,0.29755
5066.81,0.29966
5061.03,0.30119
5055.24,0.30055
5049.46,0.30406
5043.67,0.30404
5037.88,0.30471
5032.1,0.30490
5026.31,0.30494
5020.52,0.30524
5014.74,0.30615
5008.95,0.30743
5003.17,0.30666
4997.38,0.30707
4991.59,0.30593
4985.81,0.30557
4980.02,0.30421
4974.23,0.30425
4968.45,0.30215
4962.66,0.30071
4956.88,0.30105
4951.09,0.29983
4945.3,0.29768
4939.52,0.29674
4933.73,0.29386
4927.94,0.29139
4922.16,0.29077
4916.37,0.28728
4910.59,0.28483
4904.8,0.28154
4899.01,0.28035
4893.23,0.27770
4887.44,0.27589
4881.65,0.27354
4875.87,0.27155
4870.08,0.26941
4864.3,0.26840
4858.51,0.26555
4852.72,0.26445
4846.94,0.26285
4841.15,0.26003
4835.36,0.25974
4829.58,0.25866
4823.79,0.25678
4818.01,0.25697
4812.22,0.25447
4806.43,0.25364
4800.65,0.25309
4794.86,0.25260
4789.07,0.25247
4783.29,0.25115
4777.5,0.25079
4771.72,0.25047
4765.93,0.24999
4760.14,0.25119
4754.36,0.25051
4748.57,0.24981
4742.78,0.24949
4737,0.25092
4731.21,0.24980
4725.43,0.25045
4719.64,0.25048
4713.85,0.25106
4708.07,0.25153
4702.28,0.25207
4696.49,0.25230
4690.71,0.25421
4684.92,0.25313
4679.14,0.25402
4673.35,0.25414
4667.56,0.25620
4661.78,0.25641
4655.99,0.25692
4650.2,0.25937
4644.42,0.25960
4638.63,0.26098
4632.85,0.26260
4627.06,0.26292
4621.27,0.26391
4615.49,0.26572
4609.7,0.26601
4603.92,0.26638
4598.13,0.26752
4592.34,0.26903
4586.56,0.26941
4580.77,0.26886
4574.98,0.27042
4569.2,0.27072
4563.41,0.27167
4557.63,0.27119
4551.84,0.27188
4546.05,0.27159
4540.27,0.27120
4534.48,0.27258
4528.69,0.27180
4522.91,0.27201
4517.12,0.27122
4511.34,0.27007
4505.55,0.26892
4499.76,0.26799
4493.98,0.26673
4488.19,0.26451
4482.4,0.26097
4476.62,0.25744
4470.83,0.25387
4465.05,0.25042
4459.26,0.24528
4453.47,0.24156
4447.69,0.23816
4441.9,0.23415
4436.11,0.23062
4430.33,0.22655
4424.54,0.22319
4418.76,0.22058
4412.97,0.21709
4407.18,0.21442
4401.4,0.21102
4395.61,0.21003
4389.82,0.20850
4384.04,0.20741
4378.25,0.20594
4372.47,0.20403
4366.68,0.20360
4360.89,0.20056
4355.11,0.19806
4349.32,0.19291
4343.53,0.18617
4337.75,0.18102
4331.96,0.17588
4326.18,0.16657
4320.39,0.16395
4314.6,0.17786
4308.82,0.18820
4303.03,0.19285
4297.24,0.19389
4291.46,0.19317
4285.67,0.19111
4279.89,0.18994
4274.1,0.18853
4268.31,0.18723
4262.53,0.18258
4256.74,0.17519
4250.95,0.17132
4245.17,0.17915
4239.38,0.18549
4233.6,0.18660
4227.81,0.18589
4222.02,0.18341
4216.24,0.18330
4210.45,0.18434
4204.66,0.18410
4198.88,0.18095
4193.09,0.17951
4187.31,0.17926
4181.52,0.17994
4175.73,0.17978
4169.95,0.18106
4164.16,0.18113
4158.37,0.18004
4152.59,0.18015
4146.8,0.18017
4141.02,0.18042
4135.23,0.18060
4129.44,0.17957
4123.66,0.17891
4117.87,0.17841
4112.09,0.17767
4106.3,0.17515
4100.51,0.17465
4094.73,0.17381
4088.94,0.17427
4083.15,0.17503
4077.37,0.17499
4071.58,0.17404
4065.8,0.17226
4060.01,0.17130
4054.22,0.17074
4048.44,0.16939
4042.65,0.16875
4036.86,0.16778
4031.08,0.16707
4025.29,0.16638
4019.51,0.16624
4013.72,0.16772
4007.93,0.16915
4002.15,0.16925
3996.36,0.16942
3990.57,0.16982
3984.79,0.16975
3979,0.16943
3973.22,0.17060
3967.43,0.17223
3961.64,0.17293
3955.86,0.17419
3950.07,0.17404
3944.28,0.17509
3938.5,0.17563
3932.71,0.17621
3926.93,0.17647
3921.14,0.17720
3915.35,0.17788
3909.57,0.17882
3903.78,0.17961
3897.99,0.18029
3892.21,0.18104
3886.42,0.18134
3880.64,0.18266
3874.85,0.18309
3869.06,0.18415
3863.28,0.18606
3857.49,0.18793
3851.7,0.18826
3845.92,0.18905
3840.13,0.19044
3834.35,0.19058
3828.56,0.18991
3822.77,0.19101
3816.99,0.19031
3811.2,0.19046
3805.41,0.19108
3799.63,0.19097
3793.84,0.19157
3788.06,0.19124
3782.27,0.19096
3776.48,0.19076
3770.7,0.18942
3764.91,0.18947
3759.12,0.18921
3753.34,0.18817
3747.55,0.18754
3741.77,0.18631
3735.98,0.18574
3730.19,0.18340
3724.41,0.18182
3718.62,0.17876
3712.83,0.17577
3707.05,0.17295
3701.26,0.16837
3695.48,0.16424
3689.69,0.16048
3683.9,0.15486
3678.12,0.14899
3672.33,0.14218
3666.54,0.13663
3660.76,0.13027
3654.97,0.12421
3649.19,0.11885
3643.4,0.11452
3637.61,0.11087
3631.83,0.10723
3626.04,0.10361
3620.25,0.09977
3614.47,0.09599
3608.68,0.09313
3602.9,0.09072
3597.11,0.08836
3591.32,0.08545
3585.54,0.08231
3579.75,0.08019
3573.97,0.07848
3568.18,0.07674
3562.39,0.07534
3556.61,0.07256
3550.82,0.07168
3545.03,0.07075
3539.25,0.06975
3533.46,0.06832
3527.68,0.06692
3521.89,0.06571
3516.1,0.06461
3510.32,0.06443
3504.53,0.06362
3498.74,0.06296
3492.96,0.06198
3487.17,0.06167
3481.39,0.06102
3475.6,0.06089
3469.81,0.06046
3464.03,0.05934
3458.24,0.05921
3452.45,0.05917
3446.67,0.05918
3440.88,0.05856
3435.1,0.05836
3429.31,0.05872
3423.52,0.05868
3417.74,0.05870
3411.95,0.05811
3406.16,0.05808
3400.38,0.05824
3394.59,0.05821
3388.81,0.05834
3383.02,0.05754
3377.23,0.05773
3371.45,0.05701
3365.66,0.05806
3359.87,0.05803
3354.09,0.05745
3348.3,0.05778
3342.52,0.05861
3336.73,0.05873
3330.94,0.05910
3325.16,0.05932
3319.37,0.06013
3313.58,0.06035
3307.8,0.06110
3302.01,0.06106
3296.23,0.06091
3290.44,0.06168
3284.65,0.06165
3278.87,0.06171
3273.08,0.06208
3267.29,0.06378
3261.51,0.06369
3255.72,0.06492
3249.94,0.06579
3244.15,0.06640
3238.36,0.06676
3232.58,0.06784
3226.79,0.06795
3221,0.06934
3215.22,0.06919
3209.43,0.07060
3203.65,0.07057
3197.86,0.07214
3192.07,0.07287
3186.29,0.07407
3180.5,0.07478
3174.71,0.07521
3168.93,0.07562
3163.14,0.07643
3157.36,0.07760
3151.57,0.07894
3145.78,0.07957
3140,0.07951
3134.21,0.08038
3128.42,0.08122
3122.64,0.08228
3116.85,0.08230
3111.07,0.08322
3105.28,0.08387
3099.49,0.08377
3093.71,0.08401
3087.92,0.08466
3082.14,0.08488
3076.35,0.08464
3070.56,0.08527
3064.78,0.08546
3058.99,0.08552
3053.2,0.08624
3047.42,0.08595
3041.63,0.08618
3035.85,0.08606
3030.06,0.08484
3024.27,0.08459
3018.49,0.08326
3012.7,0.08137
3006.91,0.07980
3001.13,0.07763
2995.34,0.07544
2989.56,0.07375
2983.77,0.07037
2977.98,0.06635
2972.2,0.06115
2966.41,0.05685
2960.62,0.05358
2954.84,0.05147
2949.05,0.04960
2943.27,0.04663
2937.48,0.04257
2931.69,0.04159
2925.91,0.04211
2920.12,0.04789
2914.33,0.05312
2908.55,0.05360
2902.76,0.05359
2896.98,0.05362
2891.19,0.05520
2885.4,0.05639
2879.62,0.05713
2873.83,0.05728
2868.04,0.05637
2862.26,0.05335
2856.47,0.04907
2850.69,0.05215
2844.9,0.06057
2839.11,0.06733
2833.33,0.07308
2827.54,0.07694
2821.75,0.08050
2815.97,0.08263
2810.18,0.08522
2804.4,0.08716
2798.61,0.08873
2792.82,0.09032
2787.04,0.09193
2781.25,0.09331
2775.46,0.09344
2769.68,0.09422
2763.89,0.09470
2758.11,0.09529
2752.32,0.09558
2746.53,0.09556
2740.75,0.09556
2734.96,0.09514
2729.17,0.09528
2723.39,0.09624
2717.6,0.09718
2711.82,0.09778
2706.03,0.09837
2700.24,0.09916
2694.46,0.09943
2688.67,0.10010
2682.88,0.10032
2677.1,0.10037
2671.31,0.10052
2665.53,0.10059
2659.74,0.10073
2653.95,0.10160
2648.17,0.10176
2642.38,0.10205
2636.59,0.10216
2630.81,0.10299
2625.02,0.10381
2619.24,0.10500
2613.45,0.10586
2607.66,0.10652
2601.88,0.10732
2596.09,0.10787
2590.3,0.10861
2584.52,0.10883
2578.73,0.10916
2572.95,0.11019
2567.16,0.11066
2561.37,0.11088
2555.59,0.11097
2549.8,0.11142
2544.02,0.11192
2538.23,0.11253
2532.44,0.11222
2526.66,0.11285
2520.87,0.11304
2515.08,0.11383
2509.3,0.11476
2503.51,0.11608
2497.73,0.11650
2491.94,0.11760
2486.15,0.11845
2480.37,0.11887
2474.58,0.11929
2468.79,0.11999
2463.01,0.12091
2457.22,0.12114
2451.44,0.12206
2445.65,0.12242
2439.86,0.12314
2434.08,0.12389
2428.29,0.12399
2422.5,0.12507
2416.72,0.12518
2410.93,0.12665
2405.15,0.12775
2399.36,0.12840
2393.57,0.12951
2387.79,0.13023
2382,0.13088
2376.21,0.13115
2370.43,0.13170
2364.64,0.13194
2358.86,0.13228
2353.07,0.13121
2347.28,0.13074
2341.5,0.13127
2335.71,0.13106
2329.92,0.13141
2324.14,0.13198
2318.35,0.13263
2312.57,0.13327
2306.78,0.13314
2300.99,0.13401
2295.21,0.13385
2289.42,0.13364
2283.63,0.13348
2277.85,0.13327
2272.06,0.13335
2266.28,0.13316
2260.49,0.13225
2254.7,0.13147
2248.92,0.13082
2243.13,0.13042
2237.34,0.13045
2231.56,0.13097
2225.77,0.13078
2219.99,0.13109
2214.2,0.13120
2208.41,0.13127
2202.63,0.13059
2196.84,0.12988
2191.05,0.12856
2185.27,0.12729
2179.48,0.12572
2173.7,0.12410
2167.91,0.12239
2162.12,0.12132
2156.34,0.12043
2150.55,0.11941
2144.76,0.11874
2138.98,0.11852
2133.19,0.11870
2127.41,0.11898
2121.62,0.11920
2115.83,0.11951
2110.05,0.11967
2104.26,0.11986
2098.47,0.12085
2092.69,0.12068
2086.9,0.12116
2081.12,0.12072
2075.33,0.12091
2069.54,0.11994
2063.76,0.11958
2057.97,0.11950
2052.19,0.11915
2046.4,0.11937
2040.61,0.11908
2034.83,0.11966
2029.04,0.11968
2023.25,0.12002
2017.47,0.12076
2011.68,0.12275
2005.9,0.12468
2000.11,0.12575
1994.32,0.12663
1988.54,0.12734
1982.75,0.12753
1976.96,0.12723
1971.18,0.12675
1965.39,0.12644
1959.61,0.12593
1953.82,0.12580
1948.03,0.12589
1942.25,0.12637
1936.46,0.12778
1930.67,0.12863
1924.89,0.12898
1919.1,0.12965
1913.32,0.12980
1907.53,0.12939
1901.74,0.12881
1895.96,0.12818
1890.17,0.12895
1884.38,0.13005
1878.6,0.13034
1872.81,0.12956
1867.03,0.12902
1861.24,0.12838
1855.45,0.12748
1849.67,0.12645
1843.88,0.12495
1838.09,0.12323
1832.31,0.12152
1826.52,0.11938
1820.74,0.11688
1814.95,0.11414
1809.16,0.11129
1803.38,0.10825
1797.59,0.10438
1791.8,0.10043
1786.02,0.09626
1780.23,0.09104
1774.45,0.08429
1768.66,0.07587
1762.87,0.06873
1757.09,0.06334
1751.3,0.05962
1745.51,0.05709
1739.73,0.05703
1733.94,0.05848
1728.16,0.05985
1722.37,0.06197
1716.58,0.06362
1710.8,0.06638
1705.01,0.06857
1699.22,0.06983
1693.44,0.07007
1687.65,0.06996
1681.87,0.06848
1676.08,0.06657
1670.29,0.06466
1664.51,0.06350
1658.72,0.06286
1652.93,0.06334
1647.15,0.06387
1641.36,0.06339
1635.58,0.06343
1629.79,0.06255
1624,0.06190
1618.22,0.06083
1612.43,0.06000
1606.64,0.05853
1600.86,0.05708
1595.07,0.05646
1589.29,0.05751
1583.5,0.06074
1577.71,0.06484
1571.93,0.06860
1566.14,0.07071
1560.35,0.07202
1554.57,0.07220
1548.78,0.07208
1543,0.07113
1537.21,0.06933
1531.42,0.06758
1525.64,0.06498
1519.85,0.05977
1514.07,0.05641
1508.28,0.05520
1502.49,0.05479
1496.71,0.05589
1490.92,0.05734
1485.13,0.05694
1479.35,0.05261
1473.56,0.04447
1467.78,0.04261
1461.99,0.04390
1456.2,0.04697
1450.42,0.04897
1444.63,0.04996
1438.84,0.05053
1433.06,0.05007
1427.27,0.05070
1421.49,0.05147
1415.7,0.05257
1409.91,0.05332
1404.13,0.05337
1398.34,0.05322
1392.55,0.05211
1386.77,0.05073
1380.98,0.04863
1375.2,0.04819
1369.41,0.04876
1363.62,0.04952
1357.84,0.05002
1352.05,0.05050
1346.26,0.05008
1340.48,0.04984
1334.69,0.04923
1328.91,0.04954
1323.12,0.04980
1317.33,0.05044
1311.55,0.05023
1305.76,0.05099
1299.97,0.05109
1294.19,0.05096
1288.4,0.04994
1282.62,0.04902
1276.83,0.04865
1271.04,0.04692
1265.26,0.04494
1259.47,0.04472
1253.68,0.04646
1247.9,0.04696
1242.11,0.04679
1236.33,0.04728
1230.54,0.04786
1224.75,0.04850
1218.97,0.04884
1213.18,0.04903
1207.39,0.04924
1201.61,0.04966
1195.82,0.04912
1190.04,0.04852
1184.25,0.04732
1178.46,0.04633
1172.68,0.04576
1166.89,0.04567
1161.1,0.04630
1155.32,0.04626
1149.53,0.04521
1143.75,0.04384
1137.96,0.04248
1132.17,0.04209
1126.39,0.04374
1120.6,0.04349
1114.81,0.04378
1109.03,0.04318
1103.24,0.04367
1097.46,0.04345
1091.67,0.04388
1085.88,0.04363
1080.1,0.04463
1074.31,0.04660
1068.52,0.04854
1062.74,0.05031
1056.95,0.05333
1051.17,0.05367
1045.38,0.05274
1039.59,0.05430
1033.81,0.05586
1028.02,0.05642
1022.24,0.05572
1016.45,0.05767
1010.66,0.05886
1004.88,0.05975
999.09,0.05977
993.304,0.06009
987.518,0.06175
981.731,0.06400
975.945,0.06506
970.159,0.06509
964.373,0.06668
958.586,0.06834
952.8,0.07045
947.014,0.07112
941.228,0.07105
935.441,0.07020
929.655,0.06901
923.869,0.06834
918.083,0.06734
912.297,0.06556
906.51,0.06424
900.724,0.06212
894.938,0.06243
889.152,0.06439
883.365,0.06500
877.579,0.06497
871.793,0.06474
866.007,0.06533
860.22,0.06535
854.434,0.06472
848.648,0.06530
842.862,0.06316
837.075,0.06234
831.289,0.06123
825.503,0.05903
819.717,0.05744
813.931,0.05772
808.144,0.05638
802.358,0.05616
796.572,0.05723
790.786,0.05805
784.999,0.05933
779.213,0.05940
773.427,0.05862
767.641,0.05846
761.854,0.05642
756.068,0.05493
750.282,0.05446
744.496,0.05320
738.709,0.05274
732.923,0.04842
727.137,0.04813
721.351,0.04661
715.565,0.04963
709.778,0.04989
703.992,0.04985
698.206,0.05036
692.42,0.04910
686.633,0.04872
680.847,0.04762
675.061,0.04774
669.275,0.04662
663.488,0.04772
657.702,0.04754
651.916,0.04878
646.13,0.04707
640.343,0.04607
634.557,0.04457
628.771,0.04513
622.985,0.04305
617.198,0.04469
611.412,0.04610
605.626,0.04483
599.84,0.04625