File: 01_Data/Composite_Deck_Board/FTIR/IS/Composite_Deck_Board_IS_S_220928_R6.dpt
7497.03,0.39729
7491.25,0.40150
7485.46,0.40161
7479.67,0.39905
7473.89,0.40270
7468.1,0.39404
7462.32,0.39317
7456.53,0.39108
7450.74,0.40254
7444.96,0.39703
7439.17,0.39013
7433.38,0.39745
7427.6,0.38965
7421.81,0.39706
7416.03,0.40213
7410.24,0.39430
7404.45,0.39513
7398.67,0.39242
7392.88,0.39078
7387.09,0.39409
7381.31,0.38901
7375.52,0.39276
7369.74,0.39761
7363.95,0.39081
7358.16,0.39046
7352.38,0.39340
7346.59,0.40050
7340.8,0.39731
7335.02,0.38880
7329.23,0.38637
7323.45,0.39226
7317.66,0.38566
7311.87,0.39223
7306.09,0.38951
7300.3,0.39357
7294.51,0.39165
7288.73,0.39233
7282.94,0.39466
7277.16,0.38647
7271.37,0.38413
7265.58,0.37575
7259.8,0.38725
7254.01,0.38963
7248.22,0.38832
7242.44,0.38712
7236.65,0.38775
7230.87,0.38373
7225.08,0.38118
7219.29,0.38356
7213.51,0.38808
7207.72,0.38449
7201.93,0.37890
7196.15,0.38316
7190.36,0.37471
7184.58,0.37387
7178.79,0.38055
7173,0.38102
7167.22,0.37561
7161.43,0.36899
7155.65,0.37193
7149.86,0.37259
7144.07,0.37616
7138.29,0.37294
7132.5,0.37012
7126.71,0.37505
7120.93,0.37122
7115.14,0.36611
7109.36,0.36670
7103.57,0.37241
7097.78,0.36326
7092,0.36976
7086.21,0.36335
7080.42,0.36666
7074.64,0.35426
7068.85,0.35809
7063.07,0.35374
7057.28,0.34978
7051.49,0.35227
7045.71,0.35164
7039.92,0.34796
7034.13,0.34713
7028.35,0.34997
7022.56,0.34770
7016.78,0.34196
7010.99,0.34826
7005.2,0.34356
6999.42,0.34160
6993.63,0.34130
6987.84,0.33879
6982.06,0.33912
6976.27,0.33779
6970.49,0.33448
6964.7,0.33648
6958.91,0.33377
6953.13,0.33898
6947.34,0.33456
6941.55,0.33450
6935.77,0.33366
6929.98,0.33631
6924.2,0.33899
6918.41,0.33612
6912.62,0.32956
6906.84,0.33455
6901.05,0.33186
6895.26,0.33325
6889.48,0.33453
6883.69,0.33739
6877.91,0.33596
6872.12,0.33512
6866.33,0.32899
6860.55,0.33298
6854.76,0.33611
6848.97,0.33082
6843.19,0.33569
6837.4,0.33558
6831.62,0.33533
6825.83,0.33558
6820.04,0.33620
6814.26,0.34146
6808.47,0.33400
6802.68,0.34006
6796.9,0.33668
6791.11,0.33163
6785.33,0.33536
6779.54,0.33361
6773.75,0.33554
6767.97,0.33649
6762.18,0.34060
6756.39,0.33501
6750.61,0.34183
6744.82,0.34060
6739.04,0.33980
6733.25,0.33657
6727.46,0.33444
6721.68,0.33761
6715.89,0.34103
6710.1,0.33863
6704.32,0.33718
6698.53,0.33869
6692.75,0.33932
6686.96,0.33931
6681.17,0.34294
6675.39,0.34155
6669.6,0.34227
6663.82,0.34323
6658.03,0.34227
6652.24,0.34126
6646.46,0.33908
6640.67,0.34206
6634.88,0.34194
6629.1,0.34606
6623.31,0.34479
6617.53,0.34726
6611.74,0.34437
6605.95,0.34418
6600.17,0.34394
6594.38,0.35027
6588.59,0.34974
6582.81,0.34895
6577.02,0.34754
6571.24,0.34953
6565.45,0.34961
6559.66,0.34787
6553.88,0.34612
6548.09,0.34935
6542.3,0.34886
6536.52,0.34799
6530.73,0.34889
6524.95,0.35020
6519.16,0.35168
6513.37,0.34953
6507.59,0.35050
6501.8,0.34620
6496.01,0.34662
6490.23,0.35101
6484.44,0.35233
6478.66,0.34955
6472.87,0.34900
6467.08,0.35235
6461.3,0.34894
6455.51,0.35315
6449.72,0.35661
6443.94,0.35041
6438.15,0.35224
6432.37,0.35003
6426.58,0.35223
6420.79,0.35198
6415.01,0.35263
6409.22,0.35254
6403.43,0.35022
6397.65,0.35065
6391.86,0.35304
6386.08,0.35033
6380.29,0.35235
6374.5,0.35165
6368.72,0.35233
6362.93,0.35192
6357.14,0.35361
6351.36,0.35137
6345.57,0.35368
6339.79,0.35030
6334,0.35203
6328.21,0.35240
6322.43,0.35364
6316.64,0.35437
6310.85,0.35431
6305.07,0.35628
6299.28,0.35915
6293.5,0.35517
6287.71,0.35587
6281.92,0.35354
6276.14,0.35448
6270.35,0.35643
6264.56,0.35700
6258.78,0.35560
6252.99,0.35637
6247.21,0.35829
6241.42,0.35909
6235.63,0.36282
6229.85,0.36167
6224.06,0.35944
6218.27,0.36246
6212.49,0.36167
6206.7,0.36530
6200.92,0.36388
6195.13,0.36305
6189.34,0.36323
6183.56,0.36391
6177.77,0.36147
6171.98,0.36352
6166.2,0.36558
6160.41,0.36265
6154.63,0.36781
6148.84,0.36448
6143.05,0.36364
6137.27,0.36133
6131.48,0.36437
6125.7,0.36124
6119.91,0.36525
6114.12,0.36944
6108.34,0.36481
6102.55,0.36626
6096.76,0.36706
6090.98,0.36262
6085.19,0.36459
6079.41,0.36541
6073.62,0.36656
6067.83,0.36904
6062.05,0.36537
6056.26,0.36534
6050.47,0.36367
6044.69,0.36216
6038.9,0.36240
6033.12,0.36385
6027.33,0.36450
6021.54,0.36145
6015.76,0.36052
6009.97,0.36035
6004.18,0.36315
5998.4,0.35974
5992.61,0.35886
5986.83,0.35793
5981.04,0.35888
5975.25,0.35630
5969.47,0.35659
5963.68,0.35579
5957.89,0.35378
5952.11,0.35234
5946.32,0.35481
5940.54,0.35308
5934.75,0.35204
5928.96,0.34930
5923.18,0.34943
5917.39,0.34740
5911.6,0.34652
5905.82,0.34449
5900.03,0.34451
5894.25,0.34323
5888.46,0.34225
5882.67,0.34041
5876.89,0.33892
5871.1,0.33390
5865.31,0.33315
5859.53,0.32956
5853.74,0.32568
5847.96,0.32238
5842.17,0.32097
5836.38,0.31725
5830.6,0.31352
5824.81,0.31249
5819.02,0.30649
5813.24,0.30305
5807.45,0.29891
5801.67,0.29582
5795.88,0.29322
5790.09,0.28920
5784.31,0.27906
5778.52,0.27263
5772.73,0.27270
5766.95,0.28294
5761.16,0.29436
5755.38,0.30235
5749.59,0.30606
5743.8,0.31159
5738.02,0.31567
5732.23,0.31516
5726.44,0.31956
5720.66,0.32241
5714.87,0.32274
5709.09,0.32154
5703.3,0.32163
5697.51,0.31979
5691.73,0.31655
5685.94,0.31480
5680.15,0.31129
5674.37,0.30945
5668.58,0.30434
5662.8,0.30142
5657.01,0.30583
5651.22,0.31271
5645.44,0.31840
5639.65,0.32108
5633.87,0.32324
5628.08,0.32376
5622.29,0.32384
5616.51,0.32591
5610.72,0.32674
5604.93,0.32629
5599.15,0.32799
5593.36,0.33056
5587.58,0.32928
5581.79,0.32885
5576,0.32800
5570.22,0.32726
5564.43,0.32602
5558.64,0.32624
5552.86,0.32731
5547.07,0.32614
5541.29,0.32485
5535.5,0.32572
5529.71,0.32673
5523.93,0.32790
5518.14,0.32625
5512.35,0.32723
5506.57,0.32539
5500.78,0.32602
5495,0.32560
5489.21,0.32544
5483.42,0.32667
5477.64,0.32597
5471.85,0.32823
5466.06,0.32792
5460.28,0.32931
5454.49,0.32968
5448.71,0.32918
5442.92,0.32887
5437.13,0.33226
5431.35,0.33241
5425.56,0.33211
5419.77,0.33322
5413.99,0.33642
5408.2,0.33572
5402.42,0.33694
5396.63,0.33680
5390.84,0.33838
5385.06,0.33812
5379.27,0.33667
5373.48,0.33819
5367.7,0.34007
5361.91,0.34027
5356.13,0.33912
5350.34,0.33808
5344.55,0.33852
5338.77,0.34006
5332.98,0.33849
5327.19,0.33863
5321.41,0.33738
5315.62,0.33533
5309.84,0.33322
5304.05,0.33016
5298.26,0.32720
5292.48,0.32590
5286.69,0.32271
5280.9,0.31995
5275.12,0.31640
5269.33,0.30941
5263.55,0.30431
5257.76,0.30020
5251.97,0.29727
5246.19,0.29099
5240.4,0.28596
5234.61,0.28343
5228.83,0.28091
5223.04,0.27790
5217.26,0.27717
5211.47,0.27511
5205.68,0.27454
5199.9,0.27391
5194.11,0.27248
5188.32,0.27386
5182.54,0.27491
5176.75,0.27581
5170.97,0.27548
5165.18,0.27801
5159.39,0.27963
5153.61,0.28117
5147.82,0.28194
5142.03,0.28382
5136.25,0.28583
5130.46,0.28671
5124.68,0.28693
5118.89,0.28990
5113.1,0.29117
5107.32,0.29031
5101.53,0.29306
5095.75,0.29233
5089.96,0.29520
5084.17,0.29710
5078.39,0.29691
5072.6,0.29825
5066.81,0.30102
5061.03,0.30148
5055.24,0.30285
5049.46,0.30300
5043.67,0.30387
5037.88,0.30439
5032.1,0.30432
5026.31,0.30626
5020.52,0.30766
5014.74,0.30758
5008.95,0.30622
5003.17,0.30661
4997.38,0.30713
4991.59,0.30633
4985.81,0.30547
4980.02,0.30531
4974.23,0.30473
4968.45,0.30264
4962.66,0.30121
4956.88,0.30088
4951.09,0.29898
4945.3,0.29875
4939.52,0.29619
4933.73,0.29374
4927.94,0.29224
4922.16,0.29012
4916.37,0.28615
4910.59,0.28494
4904.8,0.28296
4899.01,0.28104
4893.23,0.27859
4887.44,0.27700
4881.65,0.27434
4875.87,0.27153
4870.08,0.26977
4864.3,0.26738
4858.51,0.26543
4852.72,0.26491
4846.94,0.26315
4841.15,0.26162
4835.36,0.26084
4829.58,0.25823
4823.79,0.25713
4818.01,0.25658
4812.22,0.25451
4806.43,0.25466
4800.65,0.25373
4794.86,0.25267
4789.07,0.25367
4783.29,0.25283
4777.5,0.25190
4771.72,0.25106
4765.93,0.25177
4760.14,0.25023
4754.36,0.25103
4748.57,0.25055
4742.78,0.25018
4737,0.25060
4731.21,0.25147
4725.43,0.25164
4719.64,0.25036
4713.85,0.25208
4708.07,0.25197
4702.28,0.25228
4696.49,0.25209
4690.71,0.25337
4684.92,0.25258
4679.14,0.25484
4673.35,0.25518
4667.56,0.25566
4661.78,0.25732
4655.99,0.25823
4650.2,0.25977
4644.42,0.26036
4638.63,0.26285
4632.85,0.26306
4627.06,0.26379
4621.27,0.26384
4615.49,0.26521
4609.7,0.26630
4603.92,0.26779
4598.13,0.26885
4592.34,0.26954
4586.56,0.27000
4580.77,0.27022
4574.98,0.27081
4569.2,0.27102
4563.41,0.27129
4557.63,0.27111
4551.84,0.27220
4546.05,0.27296
4540.27,0.27193
4534.48,0.27190
4528.69,0.27198
4522.91,0.27145
4517.12,0.27169
4511.34,0.27076
4505.55,0.27031
4499.76,0.26816
4493.98,0.26600
4488.19,0.26397
4482.4,0.26159
4476.62,0.25870
4470.83,0.25471
4465.05,0.25032
4459.26,0.24625
4453.47,0.24249
4447.69,0.23856
4441.9,0.23499
4436.11,0.23082
4430.33,0.22659
4424.54,0.22413
4418.76,0.21981
4412.97,0.21765
4407.18,0.21465
4401.4,0.21194
4395.61,0.21038
4389.82,0.20869
4384.04,0.20683
4378.25,0.20697
4372.47,0.20468
4366.68,0.20373
4360.89,0.20093
4355.11,0.19735
4349.32,0.19308
4343.53,0.18558
4337.75,0.18062
4331.96,0.17486
4326.18,0.16687
4320.39,0.16507
4314.6,0.17919
4308.82,0.18877
4303.03,0.19346
4297.24,0.19461
4291.46,0.19366
4285.67,0.19131
4279.89,0.19012
4274.1,0.18940
4268.31,0.18677
4262.53,0.18201
4256.74,0.17552
4250.95,0.17186
4245.17,0.17839
4239.38,0.18549
4233.6,0.18685
4227.81,0.18574
4222.02,0.18393
4216.24,0.18424
4210.45,0.18421
4204.66,0.18350
4198.88,0.18048
4193.09,0.17938
4187.31,0.17982
4181.52,0.17962
4175.73,0.18063
4169.95,0.18070
4164.16,0.18141
4158.37,0.18135
4152.59,0.18038
4146.8,0.18083
4141.02,0.18157
4135.23,0.18007
4129.44,0.17902
4123.66,0.17922
4117.87,0.17777
4112.09,0.17720
4106.3,0.17542
4100.51,0.17381
4094.73,0.17323
4088.94,0.17415
4083.15,0.17523
4077.37,0.17531
4071.58,0.17447
4065.8,0.17290
4060.01,0.17201
4054.22,0.17098
4048.44,0.17033
4042.65,0.16897
4036.86,0.16839
4031.08,0.16773
4025.29,0.16689
4019.51,0.16576
4013.72,0.16782
4007.93,0.16849
4002.15,0.16899
3996.36,0.16921
3990.57,0.17016
3984.79,0.17022
3979,0.17052
3973.22,0.17044
3967.43,0.17198
3961.64,0.17360
3955.86,0.17423
3950.07,0.17488
3944.28,0.17571
3938.5,0.17628
3932.71,0.17586
3926.93,0.17680
3921.14,0.17720
3915.35,0.17813
3909.57,0.17838
3903.78,0.17941
3897.99,0.18024
3892.21,0.18113
3886.42,0.18133
3880.64,0.18247
3874.85,0.18277
3869.06,0.18411
3863.28,0.18608
3857.49,0.18770
3851.7,0.18848
3845.92,0.18911
3840.13,0.18931
3834.35,0.19062
3828.56,0.18983
3822.77,0.19080
3816.99,0.18993
3811.2,0.19027
3805.41,0.19094
3799.63,0.19141
3793.84,0.19146
3788.06,0.19138
3782.27,0.19128
3776.48,0.19042
3770.7,0.18996
3764.91,0.18969
3759.12,0.18900
3753.34,0.18844
3747.55,0.18791
3741.77,0.18636
3735.98,0.18485
3730.19,0.18351
3724.41,0.18102
3718.62,0.17929
3712.83,0.17619
3707.05,0.17249
3701.26,0.16850
3695.48,0.16428
3689.69,0.15992
3683.9,0.15472
3678.12,0.14808
3672.33,0.14214
3666.54,0.13552
3660.76,0.12907
3654.97,0.12376
3649.19,0.11929
3643.4,0.11411
3637.61,0.11035
3631.83,0.10677
3626.04,0.10295
3620.25,0.09952
3614.47,0.09636
3608.68,0.09292
3602.9,0.08978
3597.11,0.08745
3591.32,0.08499
3585.54,0.08207
3579.75,0.08096
3573.97,0.07803
3568.18,0.07726
3562.39,0.07532
3556.61,0.07294
3550.82,0.07143
3545.03,0.07031
3539.25,0.06926
3533.46,0.06785
3527.68,0.06720
3521.89,0.06634
3516.1,0.06523
3510.32,0.06447
3504.53,0.06425
3498.74,0.06308
3492.96,0.06229
3487.17,0.06156
3481.39,0.06126
3475.6,0.06100
3469.81,0.06024
3464.03,0.05994
3458.24,0.05851
3452.45,0.05844
3446.67,0.05886
3440.88,0.05881
3435.1,0.05887
3429.31,0.05889
3423.52,0.05859
3417.74,0.05826
3411.95,0.05794
3406.16,0.05815
3400.38,0.05796
3394.59,0.05878
3388.81,0.05794
3383.02,0.05735
3377.23,0.05787
3371.45,0.05771
3365.66,0.05821
3359.87,0.05802
3354.09,0.05771
3348.3,0.05829
3342.52,0.05862
3336.73,0.05911
3330.94,0.05835
3325.16,0.05966
3319.37,0.05952
3313.58,0.06026
3307.8,0.06020
3302.01,0.06087
3296.23,0.06137
3290.44,0.06137
3284.65,0.06182
3278.87,0.06313
3273.08,0.06351
3267.29,0.06281
3261.51,0.06412
3255.72,0.06471
3249.94,0.06550
3244.15,0.06675
3238.36,0.06674
3232.58,0.06798
3226.79,0.06868
3221,0.06957
3215.22,0.07082
3209.43,0.07004
3203.65,0.07089
3197.86,0.07232
3192.07,0.07265
3186.29,0.07276
3180.5,0.07395
3174.71,0.07520
3168.93,0.07650
3163.14,0.07662
3157.36,0.07790
3151.57,0.07824
3145.78,0.07897
3140,0.07921
3134.21,0.08120
3128.42,0.08183
3122.64,0.08213
3116.85,0.08237
3111.07,0.08297
3105.28,0.08379
3099.49,0.08366
3093.71,0.08384
3087.92,0.08451
3082.14,0.08456
3076.35,0.08511
3070.56,0.08549
3064.78,0.08517
3058.99,0.08607
3053.2,0.08615
3047.42,0.08599
3041.63,0.08592
3035.85,0.08598
3030.06,0.08527
3024.27,0.08433
3018.49,0.08305
3012.7,0.08131
3006.91,0.07906
3001.13,0.07743
2995.34,0.07605
2989.56,0.07381
2983.77,0.07069
2977.98,0.06661
2972.2,0.06138
2966.41,0.05697
2960.62,0.05335
2954.84,0.05141
2949.05,0.04970
2943.27,0.04596
2937.48,0.04307
2931.69,0.04153
2925.91,0.04207
2920.12,0.04792
2914.33,0.05350
2908.55,0.05352
2902.76,0.05305
2896.98,0.05308
2891.19,0.05503
2885.4,0.05637
2879.62,0.05768
2873.83,0.05751
2868.04,0.05612
2862.26,0.05311
2856.47,0.04962
2850.69,0.05155
2844.9,0.06087
2839.11,0.06735
2833.33,0.07239
2827.54,0.07756
2821.75,0.08078
2815.97,0.08319
2810.18,0.08532
2804.4,0.08674
2798.61,0.08905
2792.82,0.09061
2787.04,0.09132
2781.25,0.09276
2775.46,0.09343
2769.68,0.09391
2763.89,0.09463
2758.11,0.09553
2752.32,0.09554
2746.53,0.09534
2740.75,0.09551
2734.96,0.09556
2729.17,0.09602
2723.39,0.09648
2717.6,0.09689
2711.82,0.09765
2706.03,0.09824
2700.24,0.09893
2694.46,0.09959
2688.67,0.09967
2682.88,0.10011
2677.1,0.10049
2671.31,0.10053
2665.53,0.10057
2659.74,0.10101
2653.95,0.10125
2648.17,0.10145
2642.38,0.10182
2636.59,0.10225
2630.81,0.10262
2625.02,0.10419
2619.24,0.10550
2613.45,0.10569
2607.66,0.10646
2601.88,0.10705
2596.09,0.10751
2590.3,0.10861
2584.52,0.10954
2578.73,0.10962
2572.95,0.11067
2567.16,0.11082
2561.37,0.11075
2555.59,0.11131
2549.8,0.11173
2544.02,0.11182
2538.23,0.11184
2532.44,0.11260
2526.66,0.11303
2520.87,0.11376
2515.08,0.11405
2509.3,0.11542
2503.51,0.11571
2497.73,0.11686
2491.94,0.11708
2486.15,0.11775
2480.37,0.11894
2474.58,0.11939
2468.79,0.11999
2463.01,0.12058
2457.22,0.12148
2451.44,0.12189
2445.65,0.12236
2439.86,0.12342
2434.08,0.12396
2428.29,0.12411
2422.5,0.12461
2416.72,0.12521
2410.93,0.12666
2405.15,0.12807
2399.36,0.12888
2393.57,0.12970
2387.79,0.13024
2382,0.13075
2376.21,0.13129
2370.43,0.13176
2364.64,0.13184
2358.86,0.13216
2353.07,0.13135
2347.28,0.13100
2341.5,0.13076
2335.71,0.13147
2329.92,0.13175
2324.14,0.13243
2318.35,0.13260
2312.57,0.13329
2306.78,0.13353
2300.99,0.13381
2295.21,0.13386
2289.42,0.13357
2283.63,0.13386
2277.85,0.13342
2272.06,0.13338
2266.28,0.13269
2260.49,0.13261
2254.7,0.13197
2248.92,0.13099
2243.13,0.13010
2237.34,0.13074
2231.56,0.13098
2225.77,0.13130
2219.99,0.13125
2214.2,0.13128
2208.41,0.13123
2202.63,0.13069
2196.84,0.12991
2191.05,0.12867
2185.27,0.12714
2179.48,0.12570
2173.7,0.12415
2167.91,0.12301
2162.12,0.12167
2156.34,0.12024
2150.55,0.11948
2144.76,0.11931
2138.98,0.11885
2133.19,0.11902
2127.41,0.11922
2121.62,0.11948
2115.83,0.11924
2110.05,0.12012
2104.26,0.12044
2098.47,0.12075
2092.69,0.12098
2086.9,0.12100
2081.12,0.12079
2075.33,0.12064
2069.54,0.12009
2063.76,0.11933
2057.97,0.11958
2052.19,0.11952
2046.4,0.11976
2040.61,0.11956
2034.83,0.11979
2029.04,0.12002
2023.25,0.12000
2017.47,0.12075
2011.68,0.12292
2005.9,0.12464
2000.11,0.12592
1994.32,0.12675
1988.54,0.12748
1982.75,0.12805
1976.96,0.12771
1971.18,0.12713
1965.39,0.12644
1959.61,0.12594
1953.82,0.12570
1948.03,0.12608
1942.25,0.12680
1936.46,0.12747
1930.67,0.12847
1924.89,0.12897
1919.1,0.12997
1913.32,0.12997
1907.53,0.12961
1901.74,0.12867
1895.96,0.12831
1890.17,0.12913
1884.38,0.13016
1878.6,0.13031
1872.81,0.13013
1867.03,0.12926
1861.24,0.12869
1855.45,0.12790
1849.67,0.12650
1843.88,0.12485
1838.09,0.12344
1832.31,0.12135
1826.52,0.11944
1820.74,0.11675
1814.95,0.11449
1809.16,0.11169
1803.38,0.10848
1797.59,0.10443
1791.8,0.10055
1786.02,0.09647
1780.23,0.09111
1774.45,0.08446
1768.66,0.07601
1762.87,0.06931
1757.09,0.06342
1751.3,0.05995
1745.51,0.05748
1739.73,0.05675
1733.94,0.05840
1728.16,0.05989
1722.37,0.06168
1716.58,0.06415
1710.8,0.06632
1705.01,0.06871
1699.22,0.07015
1693.44,0.07015
1687.65,0.06990
1681.87,0.06868
1676.08,0.06668
1670.29,0.06479
1664.51,0.06361
1658.72,0.06312
1652.93,0.06303
1647.15,0.06389
1641.36,0.06354
1635.58,0.06295
1629.79,0.06264
1624,0.06170
1618.22,0.06101
1612.43,0.06033
1606.64,0.05869
1600.86,0.05740
1595.07,0.05632
1589.29,0.05766
1583.5,0.06055
1577.71,0.06536
1571.93,0.06874
1566.14,0.07093
1560.35,0.07173
1554.57,0.07235
1548.78,0.07184
1543,0.07089
1537.21,0.06977
1531.42,0.06783
1525.64,0.06454
1519.85,0.06016
1514.07,0.05679
1508.28,0.05470
1502.49,0.05464
1496.71,0.05653
1490.92,0.05753
1485.13,0.05675
1479.35,0.05269
1473.56,0.04448
1467.78,0.04314
1461.99,0.04396
1456.2,0.04729
1450.42,0.04914
1444.63,0.05013
1438.84,0.05012
1433.06,0.05035
1427.27,0.05069
1421.49,0.05154
1415.7,0.05233
1409.91,0.05321
1404.13,0.05369
1398.34,0.05329
1392.55,0.05257
1386.77,0.05101
1380.98,0.04870
1375.2,0.04759
1369.41,0.04867
1363.62,0.04998
1357.84,0.05046
1352.05,0.05007
1346.26,0.05002
1340.48,0.05005
1334.69,0.04975
1328.91,0.04977
1323.12,0.04976
1317.33,0.04963
1311.55,0.05020
1305.76,0.05065
1299.97,0.05076
1294.19,0.05038
1288.4,0.04989
1282.62,0.04925
1276.83,0.04819
1271.04,0.04709
1265.26,0.04505
1259.47,0.04514
1253.68,0.04635
1247.9,0.04696
1242.11,0.04746
1236.33,0.04733
1230.54,0.04796
1224.75,0.04839
1218.97,0.04865
1213.18,0.04925
1207.39,0.04934
1201.61,0.04893
1195.82,0.04886
1190.04,0.04872
1184.25,0.04777
1178.46,0.04613
1172.68,0.04543
1166.89,0.04594
1161.1,0.04585
1155.32,0.04590
1149.53,0.04464
1143.75,0.04425
1137.96,0.04268
1132.17,0.04202
1126.39,0.04231
1120.6,0.04316
1114.81,0.04338
1109.03,0.04337
1103.24,0.04379
1097.46,0.04369
1091.67,0.04347
1085.88,0.04409
1080.1,0.04440
1074.31,0.04695
1068.52,0.04846
1062.74,0.05112
1056.95,0.05278
1051.17,0.05355
1045.38,0.05338
1039.59,0.05407
1033.81,0.05586
1028.02,0.05685
1022.24,0.05723
1016.45,0.05763
1010.66,0.05787
1004.88,0.05939
999.09,0.05967
993.304,0.06004
987.518,0.06250
981.731,0.06392
975.945,0.06493
970.159,0.06575
964.373,0.06655
958.586,0.06853
952.8,0.07009
947.014,0.07154
941.228,0.07098
935.441,0.07051
929.655,0.06936
923.869,0.06845
918.083,0.06742
912.297,0.06522
906.51,0.06397
900.724,0.06159
894.938,0.06247
889.152,0.06384
883.365,0.06486
877.579,0.06587
871.793,0.06521
866.007,0.06616
860.22,0.06516
854.434,0.06457
848.648,0.06368
842.862,0.06273
837.075,0.06161
831.289,0.06048
825.503,0.05965
819.717,0.05843
813.931,0.05713
808.144,0.05617
802.358,0.05628
796.572,0.05728
790.786,0.05830
784.999,0.06044
779.213,0.05985
773.427,0.05867
767.641,0.05795
761.854,0.05662
756.068,0.05586
750.282,0.05472
744.496,0.05329
738.709,0.05106
732.923,0.04905
727.137,0.04805
721.351,0.04684
715.565,0.04977
709.778,0.04987
703.992,0.04949
698.206,0.04996
692.42,0.04882
686.633,0.04884
680.847,0.04886
675.061,0.04716
669.275,0.04666
663.488,0.04746
657.702,0.04791
651.916,0.04679
646.13,0.04664
640.343,0.04483
634.557,0.04556
628.771,0.04506
622.985,0.04459
617.198,0.04466
611.412,0.04410
605.626,0.04376
599.84,0.04505