File: 01_Data/Composite_Deck_Board/FTIR/IS/Composite_Deck_Board_IS_S_220928_R1.dpt
7497.03,0.40403
7491.25,0.40333
7485.46,0.39653
7479.67,0.39493
7473.89,0.38935
7468.1,0.40482
7462.32,0.39216
7456.53,0.39151
7450.74,0.38991
7444.96,0.40069
7439.17,0.38659
7433.38,0.38640
7427.6,0.39186
7421.81,0.39545
7416.03,0.39122
7410.24,0.39044
7404.45,0.39083
7398.67,0.39745
7392.88,0.39066
7387.09,0.39659
7381.31,0.40128
7375.52,0.39511
7369.74,0.38522
7363.95,0.38632
7358.16,0.38050
7352.38,0.37958
7346.59,0.38597
7340.8,0.39693
7335.02,0.39515
7329.23,0.39622
7323.45,0.38784
7317.66,0.38739
7311.87,0.39076
7306.09,0.39201
7300.3,0.38390
7294.51,0.39175
7288.73,0.39125
7282.94,0.38952
7277.16,0.38057
7271.37,0.38197
7265.58,0.38542
7259.8,0.38565
7254.01,0.38165
7248.22,0.38386
7242.44,0.37725
7236.65,0.38365
7230.87,0.38318
7225.08,0.37986
7219.29,0.37841
7213.51,0.37831
7207.72,0.37741
7201.93,0.37439
7196.15,0.37530
7190.36,0.38065
7184.58,0.36610
7178.79,0.36621
7173,0.37027
7167.22,0.35857
7161.43,0.37906
7155.65,0.36860
7149.86,0.37493
7144.07,0.37493
7138.29,0.36814
7132.5,0.36675
7126.71,0.36611
7120.93,0.36421
7115.14,0.37233
7109.36,0.36628
7103.57,0.36636
7097.78,0.36082
7092,0.36289
7086.21,0.35885
7080.42,0.35736
7074.64,0.35947
7068.85,0.34920
7063.07,0.35715
7057.28,0.34418
7051.49,0.34339
7045.71,0.34545
7039.92,0.34685
7034.13,0.34488
7028.35,0.33615
7022.56,0.33997
7016.78,0.33986
7010.99,0.33666
7005.2,0.34088
6999.42,0.33683
6993.63,0.33735
6987.84,0.33520
6982.06,0.33595
6976.27,0.33427
6970.49,0.33741
6964.7,0.33864
6958.91,0.33550
6953.13,0.32873
6947.34,0.32887
6941.55,0.33597
6935.77,0.33417
6929.98,0.32821
6924.2,0.32880
6918.41,0.33480
6912.62,0.33167
6906.84,0.32618
6901.05,0.33108
6895.26,0.32809
6889.48,0.33212
6883.69,0.33298
6877.91,0.33275
6872.12,0.32830
6866.33,0.32793
6860.55,0.33164
6854.76,0.33072
6848.97,0.33332
6843.19,0.33467
6837.4,0.32841
6831.62,0.33113
6825.83,0.33066
6820.04,0.33132
6814.26,0.32662
6808.47,0.33231
6802.68,0.33300
6796.9,0.32991
6791.11,0.33214
6785.33,0.33154
6779.54,0.33652
6773.75,0.33093
6767.97,0.33012
6762.18,0.33399
6756.39,0.33670
6750.61,0.33642
6744.82,0.33573
6739.04,0.33997
6733.25,0.33849
6727.46,0.33385
6721.68,0.33736
6715.89,0.33782
6710.1,0.33727
6704.32,0.33702
6698.53,0.33190
6692.75,0.33768
6686.96,0.33791
6681.17,0.33559
6675.39,0.33593
6669.6,0.33971
6663.82,0.33432
6658.03,0.33919
6652.24,0.33636
6646.46,0.33962
6640.67,0.33872
6634.88,0.33818
6629.1,0.34005
6623.31,0.33753
6617.53,0.34465
6611.74,0.34269
6605.95,0.34422
6600.17,0.34012
6594.38,0.34421
6588.59,0.34385
6582.81,0.34259
6577.02,0.34397
6571.24,0.33942
6565.45,0.34062
6559.66,0.34808
6553.88,0.34935
6548.09,0.34348
6542.3,0.34280
6536.52,0.34742
6530.73,0.34400
6524.95,0.34180
6519.16,0.33744
6513.37,0.34476
6507.59,0.34558
6501.8,0.34584
6496.01,0.34507
6490.23,0.34512
6484.44,0.34776
6478.66,0.34491
6472.87,0.34413
6467.08,0.34427
6461.3,0.34719
6455.51,0.34833
6449.72,0.34492
6443.94,0.34449
6438.15,0.34904
6432.37,0.35013
6426.58,0.34370
6420.79,0.34656
6415.01,0.35060
6409.22,0.34935
6403.43,0.34811
6397.65,0.34956
6391.86,0.35106
6386.08,0.34910
6380.29,0.34998
6374.5,0.35045
6368.72,0.34776
6362.93,0.35165
6357.14,0.35280
6351.36,0.35079
6345.57,0.35029
6339.79,0.35097
6334,0.34656
6328.21,0.35079
6322.43,0.35043
6316.64,0.34904
6310.85,0.35228
6305.07,0.35096
6299.28,0.34817
6293.5,0.35164
6287.71,0.35146
6281.92,0.34793
6276.14,0.35137
6270.35,0.35338
6264.56,0.35507
6258.78,0.35142
6252.99,0.35218
6247.21,0.35218
6241.42,0.35589
6235.63,0.35177
6229.85,0.35656
6224.06,0.35909
6218.27,0.35766
6212.49,0.35579
6206.7,0.35928
6200.92,0.35688
6195.13,0.35501
6189.34,0.36128
6183.56,0.35910
6177.77,0.36170
6171.98,0.36022
6166.2,0.36039
6160.41,0.36327
6154.63,0.36240
6148.84,0.35996
6143.05,0.36242
6137.27,0.36196
6131.48,0.36324
6125.7,0.36434
6119.91,0.36562
6114.12,0.36394
6108.34,0.36455
6102.55,0.36686
6096.76,0.36105
6090.98,0.35953
6085.19,0.36192
6079.41,0.36014
6073.62,0.36144
6067.83,0.36271
6062.05,0.36040
6056.26,0.36276
6050.47,0.35889
6044.69,0.36077
6038.9,0.36038
6033.12,0.35981
6027.33,0.35904
6021.54,0.36068
6015.76,0.35941
6009.97,0.35773
6004.18,0.35631
5998.4,0.35508
5992.61,0.35230
5986.83,0.35253
5981.04,0.35338
5975.25,0.35259
5969.47,0.35461
5963.68,0.35253
5957.89,0.35155
5952.11,0.35079
5946.32,0.35328
5940.54,0.35040
5934.75,0.34871
5928.96,0.34786
5923.18,0.34720
5917.39,0.34374
5911.6,0.34159
5905.82,0.34072
5900.03,0.34048
5894.25,0.34045
5888.46,0.33748
5882.67,0.33709
5876.89,0.33441
5871.1,0.33024
5865.31,0.33005
5859.53,0.32884
5853.74,0.32296
5847.96,0.31797
5842.17,0.31401
5836.38,0.31187
5830.6,0.31200
5824.81,0.30626
5819.02,0.30342
5813.24,0.30109
5807.45,0.29856
5801.67,0.29350
5795.88,0.28801
5790.09,0.28373
5784.31,0.27698
5778.52,0.27243
5772.73,0.27108
5766.95,0.27848
5761.16,0.28881
5755.38,0.30011
5749.59,0.30119
5743.8,0.30702
5738.02,0.31172
5732.23,0.31253
5726.44,0.31650
5720.66,0.32025
5714.87,0.31995
5709.09,0.31817
5703.3,0.31865
5697.51,0.31658
5691.73,0.31409
5685.94,0.30998
5680.15,0.30978
5674.37,0.30696
5668.58,0.30089
5662.8,0.30001
5657.01,0.30348
5651.22,0.31021
5645.44,0.31505
5639.65,0.31709
5633.87,0.31704
5628.08,0.31921
5622.29,0.32010
5616.51,0.32222
5610.72,0.32055
5604.93,0.32266
5599.15,0.32364
5593.36,0.32449
5587.58,0.32424
5581.79,0.32360
5576,0.32379
5570.22,0.32173
5564.43,0.32365
5558.64,0.32207
5552.86,0.32206
5547.07,0.32403
5541.29,0.32376
5535.5,0.32490
5529.71,0.32224
5523.93,0.32338
5518.14,0.32434
5512.35,0.32250
5506.57,0.32292
5500.78,0.32254
5495,0.32322
5489.21,0.32231
5483.42,0.32286
5477.64,0.32463
5471.85,0.32597
5466.06,0.32742
5460.28,0.32589
5454.49,0.32629
5448.71,0.32793
5442.92,0.32706
5437.13,0.32702
5431.35,0.32951
5425.56,0.32906
5419.77,0.33080
5413.99,0.32962
5408.2,0.33086
5402.42,0.33285
5396.63,0.33237
5390.84,0.33341
5385.06,0.33486
5379.27,0.33463
5373.48,0.33509
5367.7,0.33442
5361.91,0.33580
5356.13,0.33459
5350.34,0.33532
5344.55,0.33511
5338.77,0.33451
5332.98,0.33250
5327.19,0.33262
5321.41,0.33169
5315.62,0.33231
5309.84,0.32875
5304.05,0.32555
5298.26,0.32214
5292.48,0.31999
5286.69,0.31522
5280.9,0.31148
5275.12,0.30746
5269.33,0.30249
5263.55,0.29624
5257.76,0.29200
5251.97,0.28566
5246.19,0.28098
5240.4,0.27789
5234.61,0.27436
5228.83,0.27015
5223.04,0.26795
5217.26,0.26587
5211.47,0.26548
5205.68,0.26329
5199.9,0.26368
5194.11,0.26345
5188.32,0.26301
5182.54,0.26465
5176.75,0.26545
5170.97,0.26565
5165.18,0.26690
5159.39,0.26786
5153.61,0.27008
5147.82,0.27344
5142.03,0.27289
5136.25,0.27572
5130.46,0.27607
5124.68,0.27864
5118.89,0.27951
5113.1,0.28164
5107.32,0.28200
5101.53,0.28278
5095.75,0.28328
5089.96,0.28521
5084.17,0.28766
5078.39,0.28838
5072.6,0.28985
5066.81,0.29168
5061.03,0.29274
5055.24,0.29431
5049.46,0.29509
5043.67,0.29766
5037.88,0.29734
5032.1,0.29840
5026.31,0.29962
5020.52,0.29897
5014.74,0.30122
5008.95,0.30113
5003.17,0.29974
4997.38,0.29999
4991.59,0.29953
4985.81,0.29972
4980.02,0.29922
4974.23,0.29793
4968.45,0.29718
4962.66,0.29556
4956.88,0.29541
4951.09,0.29387
4945.3,0.29389
4939.52,0.29164
4933.73,0.29028
4927.94,0.28749
4922.16,0.28618
4916.37,0.28277
4910.59,0.28088
4904.8,0.27889
4899.01,0.27577
4893.23,0.27540
4887.44,0.27349
4881.65,0.27017
4875.87,0.26867
4870.08,0.26676
4864.3,0.26364
4858.51,0.26243
4852.72,0.26106
4846.94,0.25945
4841.15,0.25920
4835.36,0.25702
4829.58,0.25473
4823.79,0.25385
4818.01,0.25429
4812.22,0.25320
4806.43,0.25165
4800.65,0.25025
4794.86,0.24960
4789.07,0.24956
4783.29,0.24852
4777.5,0.24865
4771.72,0.24775
4765.93,0.24750
4760.14,0.24717
4754.36,0.24587
4748.57,0.24706
4742.78,0.24662
4737,0.24745
4731.21,0.24836
4725.43,0.24853
4719.64,0.24872
4713.85,0.24833
4708.07,0.24844
4702.28,0.24925
4696.49,0.24904
4690.71,0.24974
4684.92,0.25005
4679.14,0.25035
4673.35,0.25142
4667.56,0.25250
4661.78,0.25309
4655.99,0.25424
4650.2,0.25618
4644.42,0.25683
4638.63,0.25810
4632.85,0.25956
4627.06,0.25908
4621.27,0.26019
4615.49,0.26226
4609.7,0.26256
4603.92,0.26351
4598.13,0.26440
4592.34,0.26524
4586.56,0.26554
4580.77,0.26620
4574.98,0.26661
4569.2,0.26680
4563.41,0.26689
4557.63,0.26678
4551.84,0.26779
4546.05,0.26740
4540.27,0.26864
4534.48,0.26828
4528.69,0.26797
4522.91,0.26881
4517.12,0.26833
4511.34,0.26711
4505.55,0.26609
4499.76,0.26526
4493.98,0.26219
4488.19,0.26118
4482.4,0.25760
4476.62,0.25448
4470.83,0.25025
4465.05,0.24695
4459.26,0.24309
4453.47,0.23875
4447.69,0.23505
4441.9,0.23165
4436.11,0.22766
4430.33,0.22409
4424.54,0.22111
4418.76,0.21690
4412.97,0.21366
4407.18,0.21136
4401.4,0.20945
4395.61,0.20761
4389.82,0.20568
4384.04,0.20490
4378.25,0.20321
4372.47,0.20249
4366.68,0.20160
4360.89,0.19971
4355.11,0.19456
4349.32,0.19012
4343.53,0.18396
4337.75,0.17823
4331.96,0.17308
4326.18,0.16470
4320.39,0.16249
4314.6,0.17636
4308.82,0.18598
4303.03,0.18999
4297.24,0.19158
4291.46,0.19064
4285.67,0.18961
4279.89,0.18858
4274.1,0.18628
4268.31,0.18404
4262.53,0.17959
4256.74,0.17308
4250.95,0.16896
4245.17,0.17601
4239.38,0.18293
4233.6,0.18431
4227.81,0.18294
4222.02,0.18104
4216.24,0.18059
4210.45,0.18140
4204.66,0.18110
4198.88,0.17795
4193.09,0.17651
4187.31,0.17652
4181.52,0.17699
4175.73,0.17790
4169.95,0.17840
4164.16,0.17849
4158.37,0.17845
4152.59,0.17832
4146.8,0.17761
4141.02,0.17752
4135.23,0.17717
4129.44,0.17662
4123.66,0.17581
4117.87,0.17588
4112.09,0.17400
4106.3,0.17294
4100.51,0.17164
4094.73,0.16992
4088.94,0.17137
4083.15,0.17170
4077.37,0.17176
4071.58,0.17057
4065.8,0.16953
4060.01,0.16855
4054.22,0.16744
4048.44,0.16730
4042.65,0.16655
4036.86,0.16572
4031.08,0.16439
4025.29,0.16403
4019.51,0.16333
4013.72,0.16501
4007.93,0.16566
4002.15,0.16631
3996.36,0.16660
3990.57,0.16671
3984.79,0.16668
3979,0.16701
3973.22,0.16779
3967.43,0.16885
3961.64,0.16981
3955.86,0.17066
3950.07,0.17141
3944.28,0.17271
3938.5,0.17256
3932.71,0.17280
3926.93,0.17337
3921.14,0.17426
3915.35,0.17451
3909.57,0.17533
3903.78,0.17603
3897.99,0.17710
3892.21,0.17752
3886.42,0.17885
3880.64,0.17933
3874.85,0.18006
3869.06,0.18072
3863.28,0.18240
3857.49,0.18419
3851.7,0.18527
3845.92,0.18565
3840.13,0.18527
3834.35,0.18625
3828.56,0.18697
3822.77,0.18635
3816.99,0.18620
3811.2,0.18565
3805.41,0.18691
3799.63,0.18677
3793.84,0.18682
3788.06,0.18638
3782.27,0.18604
3776.48,0.18555
3770.7,0.18533
3764.91,0.18440
3759.12,0.18332
3753.34,0.18293
3747.55,0.18202
3741.77,0.18044
3735.98,0.17965
3730.19,0.17755
3724.41,0.17516
3718.62,0.17252
3712.83,0.16935
3707.05,0.16636
3701.26,0.16210
3695.48,0.15775
3689.69,0.15243
3683.9,0.14682
3678.12,0.14058
3672.33,0.13365
3666.54,0.12673
3660.76,0.12139
3654.97,0.11564
3649.19,0.11073
3643.4,0.10658
3637.61,0.10284
3631.83,0.09909
3626.04,0.09631
3620.25,0.09298
3614.47,0.08999
3608.68,0.08797
3602.9,0.08502
3597.11,0.08351
3591.32,0.08091
3585.54,0.07961
3579.75,0.07733
3573.97,0.07553
3568.18,0.07406
3562.39,0.07250
3556.61,0.07073
3550.82,0.07006
3545.03,0.06863
3539.25,0.06766
3533.46,0.06698
3527.68,0.06620
3521.89,0.06471
3516.1,0.06419
3510.32,0.06357
3504.53,0.06226
3498.74,0.06241
3492.96,0.06126
3487.17,0.06035
3481.39,0.06047
3475.6,0.06007
3469.81,0.06008
3464.03,0.05988
3458.24,0.05830
3452.45,0.05862
3446.67,0.05872
3440.88,0.05783
3435.1,0.05815
3429.31,0.05797
3423.52,0.05712
3417.74,0.05742
3411.95,0.05722
3406.16,0.05679
3400.38,0.05714
3394.59,0.05673
3388.81,0.05712
3383.02,0.05757
3377.23,0.05685
3371.45,0.05656
3365.66,0.05730
3359.87,0.05722
3354.09,0.05744
3348.3,0.05715
3342.52,0.05818
3336.73,0.05846
3330.94,0.05918
3325.16,0.05857
3319.37,0.05926
3313.58,0.05948
3307.8,0.05917
3302.01,0.05953
3296.23,0.06032
3290.44,0.06035
3284.65,0.06154
3278.87,0.06204
3273.08,0.06176
3267.29,0.06226
3261.51,0.06302
3255.72,0.06352
3249.94,0.06437
3244.15,0.06525
3238.36,0.06595
3232.58,0.06565
3226.79,0.06624
3221,0.06720
3215.22,0.06858
3209.43,0.06924
3203.65,0.06922
3197.86,0.06987
3192.07,0.07142
3186.29,0.07176
3180.5,0.07273
3174.71,0.07346
3168.93,0.07387
3163.14,0.07416
3157.36,0.07514
3151.57,0.07598
3145.78,0.07706
3140,0.07821
3134.21,0.07812
3128.42,0.07894
3122.64,0.07964
3116.85,0.08003
3111.07,0.08048
3105.28,0.08081
3099.49,0.08129
3093.71,0.08195
3087.92,0.08173
3082.14,0.08187
3076.35,0.08157
3070.56,0.08195
3064.78,0.08292
3058.99,0.08368
3053.2,0.08375
3047.42,0.08419
3041.63,0.08406
3035.85,0.08360
3030.06,0.08320
3024.27,0.08190
3018.49,0.08051
3012.7,0.07911
3006.91,0.07775
3001.13,0.07613
2995.34,0.07455
2989.56,0.07265
2983.77,0.06946
2977.98,0.06563
2972.2,0.06050
2966.41,0.05617
2960.62,0.05342
2954.84,0.05103
2949.05,0.04938
2943.27,0.04639
2937.48,0.04272
2931.69,0.04079
2925.91,0.04187
2920.12,0.04761
2914.33,0.05273
2908.55,0.05291
2902.76,0.05281
2896.98,0.05333
2891.19,0.05502
2885.4,0.05616
2879.62,0.05695
2873.83,0.05671
2868.04,0.05608
2862.26,0.05265
2856.47,0.04892
2850.69,0.05119
2844.9,0.06021
2839.11,0.06707
2833.33,0.07189
2827.54,0.07614
2821.75,0.07970
2815.97,0.08234
2810.18,0.08452
2804.4,0.08606
2798.61,0.08759
2792.82,0.08890
2787.04,0.09022
2781.25,0.09126
2775.46,0.09236
2769.68,0.09275
2763.89,0.09317
2758.11,0.09348
2752.32,0.09460
2746.53,0.09425
2740.75,0.09435
2734.96,0.09436
2729.17,0.09435
2723.39,0.09491
2717.6,0.09531
2711.82,0.09566
2706.03,0.09687
2700.24,0.09760
2694.46,0.09795
2688.67,0.09851
2682.88,0.09858
2677.1,0.09894
2671.31,0.09905
2665.53,0.09871
2659.74,0.09905
2653.95,0.10016
2648.17,0.10022
2642.38,0.10046
2636.59,0.10115
2630.81,0.10172
2625.02,0.10248
2619.24,0.10329
2613.45,0.10404
2607.66,0.10464
2601.88,0.10553
2596.09,0.10629
2590.3,0.10700
2584.52,0.10786
2578.73,0.10786
2572.95,0.10817
2567.16,0.10880
2561.37,0.10946
2555.59,0.10968
2549.8,0.10973
2544.02,0.10989
2538.23,0.11101
2532.44,0.11114
2526.66,0.11166
2520.87,0.11220
2515.08,0.11232
2509.3,0.11347
2503.51,0.11432
2497.73,0.11463
2491.94,0.11606
2486.15,0.11654
2480.37,0.11691
2474.58,0.11773
2468.79,0.11832
2463.01,0.11911
2457.22,0.11957
2451.44,0.12002
2445.65,0.12062
2439.86,0.12195
2434.08,0.12207
2428.29,0.12237
2422.5,0.12328
2416.72,0.12401
2410.93,0.12492
2405.15,0.12564
2399.36,0.12698
2393.57,0.12788
2387.79,0.12817
2382,0.12893
2376.21,0.12906
2370.43,0.12978
2364.64,0.13039
2358.86,0.13058
2353.07,0.12957
2347.28,0.12900
2341.5,0.12913
2335.71,0.12921
2329.92,0.12960
2324.14,0.12975
2318.35,0.13055
2312.57,0.13099
2306.78,0.13104
2300.99,0.13132
2295.21,0.13075
2289.42,0.13086
2283.63,0.13116
2277.85,0.13102
2272.06,0.13036
2266.28,0.13027
2260.49,0.12973
2254.7,0.12913
2248.92,0.12812
2243.13,0.12774
2237.34,0.12783
2231.56,0.12799
2225.77,0.12781
2219.99,0.12802
2214.2,0.12841
2208.41,0.12790
2202.63,0.12744
2196.84,0.12655
2191.05,0.12544
2185.27,0.12450
2179.48,0.12286
2173.7,0.12134
2167.91,0.11994
2162.12,0.11825
2156.34,0.11729
2150.55,0.11687
2144.76,0.11636
2138.98,0.11622
2133.19,0.11591
2127.41,0.11641
2121.62,0.11674
2115.83,0.11716
2110.05,0.11715
2104.26,0.11745
2098.47,0.11725
2092.69,0.11784
2086.9,0.11804
2081.12,0.11793
2075.33,0.11736
2069.54,0.11729
2063.76,0.11669
2057.97,0.11655
2052.19,0.11626
2046.4,0.11660
2040.61,0.11663
2034.83,0.11657
2029.04,0.11693
2023.25,0.11726
2017.47,0.11789
2011.68,0.11966
2005.9,0.12185
2000.11,0.12289
1994.32,0.12371
1988.54,0.12384
1982.75,0.12463
1976.96,0.12442
1971.18,0.12433
1965.39,0.12349
1959.61,0.12283
1953.82,0.12300
1948.03,0.12313
1942.25,0.12380
1936.46,0.12484
1930.67,0.12543
1924.89,0.12618
1919.1,0.12667
1913.32,0.12686
1907.53,0.12640
1901.74,0.12601
1895.96,0.12566
1890.17,0.12610
1884.38,0.12715
1878.6,0.12752
1872.81,0.12680
1867.03,0.12653
1861.24,0.12570
1855.45,0.12509
1849.67,0.12368
1843.88,0.12255
1838.09,0.12103
1832.31,0.11951
1826.52,0.11731
1820.74,0.11475
1814.95,0.11234
1809.16,0.10954
1803.38,0.10698
1797.59,0.10331
1791.8,0.09898
1786.02,0.09533
1780.23,0.09044
1774.45,0.08400
1768.66,0.07624
1762.87,0.06902
1757.09,0.06341
1751.3,0.05964
1745.51,0.05720
1739.73,0.05665
1733.94,0.05801
1728.16,0.05946
1722.37,0.06151
1716.58,0.06364
1710.8,0.06545
1705.01,0.06787
1699.22,0.06940
1693.44,0.06920
1687.65,0.06871
1681.87,0.06670
1676.08,0.06519
1670.29,0.06342
1664.51,0.06208
1658.72,0.06183
1652.93,0.06181
1647.15,0.06179
1641.36,0.06143
1635.58,0.06191
1629.79,0.06138
1624,0.06062
1618.22,0.05992
1612.43,0.05882
1606.64,0.05826
1600.86,0.05711
1595.07,0.05646
1589.29,0.05775
1583.5,0.06089
1577.71,0.06433
1571.93,0.06852
1566.14,0.07007
1560.35,0.07113
1554.57,0.07140
1548.78,0.07091
1543,0.07049
1537.21,0.06898
1531.42,0.06747
1525.64,0.06456
1519.85,0.06009
1514.07,0.05643
1508.28,0.05536
1502.49,0.05474
1496.71,0.05611
1490.92,0.05749
1485.13,0.05627
1479.35,0.05261
1473.56,0.04456
1467.78,0.04295
1461.99,0.04404
1456.2,0.04723
1450.42,0.04889
1444.63,0.04993
1438.84,0.05056
1433.06,0.04986
1427.27,0.05029
1421.49,0.05178
1415.7,0.05223
1409.91,0.05318
1404.13,0.05315
1398.34,0.05304
1392.55,0.05224
1386.77,0.05091
1380.98,0.04845
1375.2,0.04795
1369.41,0.04894
1363.62,0.04941
1357.84,0.05012
1352.05,0.05016
1346.26,0.05035
1340.48,0.05000
1334.69,0.04971
1328.91,0.04987
1323.12,0.04944
1317.33,0.04958
1311.55,0.04994
1305.76,0.05076
1299.97,0.05084
1294.19,0.05029
1288.4,0.05004
1282.62,0.04904
1276.83,0.04803
1271.04,0.04715
1265.26,0.04487
1259.47,0.04501
1253.68,0.04582
1247.9,0.04696
1242.11,0.04706
1236.33,0.04755
1230.54,0.04807
1224.75,0.04851
1218.97,0.04892
1213.18,0.04924
1207.39,0.04976
1201.61,0.04938
1195.82,0.04949
1190.04,0.04880
1184.25,0.04764
1178.46,0.04636
1172.68,0.04547
1166.89,0.04565
1161.1,0.04596
1155.32,0.04586
1149.53,0.04522
1143.75,0.04434
1137.96,0.04267
1132.17,0.04240
1126.39,0.04282
1120.6,0.04313
1114.81,0.04307
1109.03,0.04359
1103.24,0.04339
1097.46,0.04346
1091.67,0.04322
1085.88,0.04407
1080.1,0.04521
1074.31,0.04661
1068.52,0.04831
1062.74,0.05038
1056.95,0.05258
1051.17,0.05321
1045.38,0.05315
1039.59,0.05480
1033.81,0.05627
1028.02,0.05637
1022.24,0.05639
1016.45,0.05738
1010.66,0.05887
1004.88,0.05930
999.09,0.05967
993.304,0.06032
987.518,0.06184
981.731,0.06381
975.945,0.06434
970.159,0.06506
964.373,0.06699
958.586,0.06882
952.8,0.07051
947.014,0.07087
941.228,0.07062
935.441,0.06980
929.655,0.06889
923.869,0.06811
918.083,0.06676
912.297,0.06561
906.51,0.06339
900.724,0.06181
894.938,0.06179
889.152,0.06365
883.365,0.06372
877.579,0.06458
871.793,0.06417
866.007,0.06438
860.22,0.06386
854.434,0.06394
848.648,0.06349
842.862,0.06184
837.075,0.06075
831.289,0.06013
825.503,0.05878
819.717,0.05706
813.931,0.05631
808.144,0.05587
802.358,0.05576
796.572,0.05679
790.786,0.05791
784.999,0.05875
779.213,0.05885
773.427,0.05768
767.641,0.05697
761.854,0.05593
756.068,0.05540
750.282,0.05311
744.496,0.05214
738.709,0.05143
732.923,0.04820
727.137,0.04745
721.351,0.04676
715.565,0.04863
709.778,0.04971
703.992,0.04904
698.206,0.04961
692.42,0.04814
686.633,0.04852
680.847,0.04857
675.061,0.04637
669.275,0.04641
663.488,0.04699
657.702,0.04622
651.916,0.04667
646.13,0.04656
640.343,0.04508
634.557,0.04267
628.771,0.04503
622.985,0.04524
617.198,0.04438
611.412,0.04619
605.626,0.04340
599.84,0.04405