File: 01_Data/Rubber_Foam_Pipe_Insulation/FTIR/IS/Rubber_Foam_Pipe_Insulation_IS_S_220825_R1.dpt
7497.03,0.05025
7491.25,0.03746
7485.46,0.04387
7479.67,0.04549
7473.89,0.05007
7468.1,0.04161
7462.32,0.04701
7456.53,0.05626
7450.74,0.05123
7444.96,0.04631
7439.17,0.04689
7433.38,0.04613
7427.6,0.04260
7421.81,0.03860
7416.03,0.05494
7410.24,0.05059
7404.45,0.05191
7398.67,0.05355
7392.88,0.04980
7387.09,0.05120
7381.31,0.04911
7375.52,0.04956
7369.74,0.04277
7363.95,0.04658
7358.16,0.05129
7352.38,0.04747
7346.59,0.04464
7340.8,0.03776
7335.02,0.04379
7329.23,0.03880
7323.45,0.04745
7317.66,0.04396
7311.87,0.04714
7306.09,0.04431
7300.3,0.04933
7294.51,0.04925
7288.73,0.05371
7282.94,0.05718
7277.16,0.05707
7271.37,0.04866
7265.58,0.04016
7259.8,0.04659
7254.01,0.04302
7248.22,0.05015
7242.44,0.04425
7236.65,0.05054
7230.87,0.05310
7225.08,0.04159
7219.29,0.04640
7213.51,0.05452
7207.72,0.04983
7201.93,0.04593
7196.15,0.04613
7190.36,0.04129
7184.58,0.04393
7178.79,0.04603
7173,0.04892
7167.22,0.05008
7161.43,0.04592
7155.65,0.05186
7149.86,0.04934
7144.07,0.04621
7138.29,0.04491
7132.5,0.04700
7126.71,0.05309
7120.93,0.04864
7115.14,0.04690
7109.36,0.04698
7103.57,0.04905
7097.78,0.04487
7092,0.04569
7086.21,0.04879
7080.42,0.04539
7074.64,0.04847
7068.85,0.04633
7063.07,0.04413
7057.28,0.04731
7051.49,0.04944
7045.71,0.04723
7039.92,0.04918
7034.13,0.04516
7028.35,0.04337
7022.56,0.04341
7016.78,0.04680
7010.99,0.04879
7005.2,0.05037
6999.42,0.04416
6993.63,0.04539
6987.84,0.04447
6982.06,0.04790
6976.27,0.04992
6970.49,0.04303
6964.7,0.04236
6958.91,0.04435
6953.13,0.04200
6947.34,0.04857
6941.55,0.04864
6935.77,0.05090
6929.98,0.05049
6924.2,0.05075
6918.41,0.04740
6912.62,0.04429
6906.84,0.05324
6901.05,0.04666
6895.26,0.04339
6889.48,0.04943
6883.69,0.04867
6877.91,0.04735
6872.12,0.04566
6866.33,0.04381
6860.55,0.04282
6854.76,0.04619
6848.97,0.04675
6843.19,0.04412
6837.4,0.04319
6831.62,0.04845
6825.83,0.04040
6820.04,0.05083
6814.26,0.04565
6808.47,0.04778
6802.68,0.04801
6796.9,0.04723
6791.11,0.04424
6785.33,0.04214
6779.54,0.04667
6773.75,0.04479
6767.97,0.04726
6762.18,0.04680
6756.39,0.04393
6750.61,0.04920
6744.82,0.04831
6739.04,0.04368
6733.25,0.04805
6727.46,0.04391
6721.68,0.04590
6715.89,0.04262
6710.1,0.04394
6704.32,0.04427
6698.53,0.04766
6692.75,0.04854
6686.96,0.04234
6681.17,0.04387
6675.39,0.04644
6669.6,0.04527
6663.82,0.04672
6658.03,0.04207
6652.24,0.04545
6646.46,0.04225
6640.67,0.04512
6634.88,0.04566
6629.1,0.04313
6623.31,0.04208
6617.53,0.04477
6611.74,0.04501
6605.95,0.04182
6600.17,0.04301
6594.38,0.04631
6588.59,0.04411
6582.81,0.04725
6577.02,0.04622
6571.24,0.04443
6565.45,0.04457
6559.66,0.05101
6553.88,0.05002
6548.09,0.04636
6542.3,0.04710
6536.52,0.04777
6530.73,0.04650
6524.95,0.04751
6519.16,0.04407
6513.37,0.04997
6507.59,0.04942
6501.8,0.04629
6496.01,0.04195
6490.23,0.04320
6484.44,0.04456
6478.66,0.04654
6472.87,0.04111
6467.08,0.04654
6461.3,0.04330
6455.51,0.04655
6449.72,0.04562
6443.94,0.04547
6438.15,0.04689
6432.37,0.04524
6426.58,0.04983
6420.79,0.04527
6415.01,0.04734
6409.22,0.04660
6403.43,0.04659
6397.65,0.04425
6391.86,0.04762
6386.08,0.04737
6380.29,0.04682
6374.5,0.04567
6368.72,0.04403
6362.93,0.04637
6357.14,0.04455
6351.36,0.04818
6345.57,0.04915
6339.79,0.04182
6334,0.04728
6328.21,0.04745
6322.43,0.04339
6316.64,0.04493
6310.85,0.04721
6305.07,0.04683
6299.28,0.04548
6293.5,0.04484
6287.71,0.04514
6281.92,0.04287
6276.14,0.04419
6270.35,0.04893
6264.56,0.04634
6258.78,0.04597
6252.99,0.04395
6247.21,0.04564
6241.42,0.04577
6235.63,0.04796
6229.85,0.04811
6224.06,0.04789
6218.27,0.04607
6212.49,0.04311
6206.7,0.04645
6200.92,0.04556
6195.13,0.04523
6189.34,0.04689
6183.56,0.04331
6177.77,0.05011
6171.98,0.04506
6166.2,0.04441
6160.41,0.04545
6154.63,0.04504
6148.84,0.04696
6143.05,0.04559
6137.27,0.04536
6131.48,0.04775
6125.7,0.04579
6119.91,0.04504
6114.12,0.04499
6108.34,0.04724
6102.55,0.04559
6096.76,0.04557
6090.98,0.04466
6085.19,0.04622
6079.41,0.04476
6073.62,0.04946
6067.83,0.04438
6062.05,0.04178
6056.26,0.04502
6050.47,0.04619
6044.69,0.04714
6038.9,0.04439
6033.12,0.04584
6027.33,0.04631
6021.54,0.04670
6015.76,0.04698
6009.97,0.04620
6004.18,0.04432
5998.4,0.04688
5992.61,0.04487
5986.83,0.04671
5981.04,0.04949
5975.25,0.04514
5969.47,0.04545
5963.68,0.04513
5957.89,0.04437
5952.11,0.04528
5946.32,0.04815
5940.54,0.04635
5934.75,0.04792
5928.96,0.04676
5923.18,0.04617
5917.39,0.04834
5911.6,0.04632
5905.82,0.04507
5900.03,0.04704
5894.25,0.04519
5888.46,0.04621
5882.67,0.04532
5876.89,0.04683
5871.1,0.04496
5865.31,0.04510
5859.53,0.04715
5853.74,0.04558
5847.96,0.04590
5842.17,0.04582
5836.38,0.04372
5830.6,0.04757
5824.81,0.04768
5819.02,0.04620
5813.24,0.04409
5807.45,0.04585
5801.67,0.04526
5795.88,0.04702
5790.09,0.04711
5784.31,0.04685
5778.52,0.04694
5772.73,0.04730
5766.95,0.04548
5761.16,0.04693
5755.38,0.04628
5749.59,0.04640
5743.8,0.04634
5738.02,0.04674
5732.23,0.04649
5726.44,0.04839
5720.66,0.04707
5714.87,0.04716
5709.09,0.04657
5703.3,0.04789
5697.51,0.04660
5691.73,0.04672
5685.94,0.04634
5680.15,0.04753
5674.37,0.04612
5668.58,0.04735
5662.8,0.04626
5657.01,0.04598
5651.22,0.04750
5645.44,0.04705
5639.65,0.04844
5633.87,0.04761
5628.08,0.04717
5622.29,0.04541
5616.51,0.04398
5610.72,0.04789
5604.93,0.04697
5599.15,0.04797
5593.36,0.04675
5587.58,0.04868
5581.79,0.04806
5576,0.04742
5570.22,0.04638
5564.43,0.04684
5558.64,0.04616
5552.86,0.04626
5547.07,0.04752
5541.29,0.04651
5535.5,0.04605
5529.71,0.04758
5523.93,0.04890
5518.14,0.04757
5512.35,0.04675
5506.57,0.04676
5500.78,0.04849
5495,0.04717
5489.21,0.04693
5483.42,0.04856
5477.64,0.04743
5471.85,0.04742
5466.06,0.04778
5460.28,0.04606
5454.49,0.04975
5448.71,0.04975
5442.92,0.04753
5437.13,0.04785
5431.35,0.04812
5425.56,0.04747
5419.77,0.04789
5413.99,0.04725
5408.2,0.04626
5402.42,0.04871
5396.63,0.04849
5390.84,0.04930
5385.06,0.04748
5379.27,0.04806
5373.48,0.04649
5367.7,0.04776
5361.91,0.04795
5356.13,0.04789
5350.34,0.04782
5344.55,0.04816
5338.77,0.04939
5332.98,0.04818
5327.19,0.04626
5321.41,0.04766
5315.62,0.04767
5309.84,0.04764
5304.05,0.04760
5298.26,0.04799
5292.48,0.04776
5286.69,0.04874
5280.9,0.04818
5275.12,0.04698
5269.33,0.04727
5263.55,0.04735
5257.76,0.04886
5251.97,0.04859
5246.19,0.04758
5240.4,0.04733
5234.61,0.04893
5228.83,0.04846
5223.04,0.04978
5217.26,0.04644
5211.47,0.04749
5205.68,0.04807
5199.9,0.04890
5194.11,0.04760
5188.32,0.04735
5182.54,0.04762
5176.75,0.04907
5170.97,0.04829
5165.18,0.04810
5159.39,0.04761
5153.61,0.04764
5147.82,0.04903
5142.03,0.04804
5136.25,0.04838
5130.46,0.04842
5124.68,0.04895
5118.89,0.04885
5113.1,0.04809
5107.32,0.04799
5101.53,0.04950
5095.75,0.04910
5089.96,0.04768
5084.17,0.04904
5078.39,0.04756
5072.6,0.04821
5066.81,0.04911
5061.03,0.04906
5055.24,0.04943
5049.46,0.04980
5043.67,0.04931
5037.88,0.04810
5032.1,0.04826
5026.31,0.04874
5020.52,0.04881
5014.74,0.04869
5008.95,0.04893
5003.17,0.04797
4997.38,0.04810
4991.59,0.04826
4985.81,0.04896
4980.02,0.04879
4974.23,0.04856
4968.45,0.04957
4962.66,0.04947
4956.88,0.04941
4951.09,0.04915
4945.3,0.04952
4939.52,0.04880
4933.73,0.04942
4927.94,0.04938
4922.16,0.04966
4916.37,0.04936
4910.59,0.04852
4904.8,0.04993
4899.01,0.04946
4893.23,0.05062
4887.44,0.05001
4881.65,0.04890
4875.87,0.04929
4870.08,0.04784
4864.3,0.04865
4858.51,0.04835
4852.72,0.05004
4846.94,0.04943
4841.15,0.04914
4835.36,0.05006
4829.58,0.04971
4823.79,0.04954
4818.01,0.04986
4812.22,0.04934
4806.43,0.04957
4800.65,0.04859
4794.86,0.04879
4789.07,0.04976
4783.29,0.04977
4777.5,0.04972
4771.72,0.05038
4765.93,0.04976
4760.14,0.05035
4754.36,0.04911
4748.57,0.04902
4742.78,0.04941
4737,0.04956
4731.21,0.04947
4725.43,0.04984
4719.64,0.04953
4713.85,0.04916
4708.07,0.04973
4702.28,0.05065
4696.49,0.04935
4690.71,0.05022
4684.92,0.04988
4679.14,0.04987
4673.35,0.05008
4667.56,0.05007
4661.78,0.04930
4655.99,0.05026
4650.2,0.04957
4644.42,0.04975
4638.63,0.04980
4632.85,0.04945
4627.06,0.04972
4621.27,0.04950
4615.49,0.05051
4609.7,0.04988
4603.92,0.04991
4598.13,0.04991
4592.34,0.05047
4586.56,0.04918
4580.77,0.04982
4574.98,0.05002
4569.2,0.05047
4563.41,0.05029
4557.63,0.05004
4551.84,0.05092
4546.05,0.05003
4540.27,0.04958
4534.48,0.05037
4528.69,0.05029
4522.91,0.05013
4517.12,0.05043
4511.34,0.05009
4505.55,0.04972
4499.76,0.05084
4493.98,0.05075
4488.19,0.05012
4482.4,0.05068
4476.62,0.04979
4470.83,0.05033
4465.05,0.05018
4459.26,0.05047
4453.47,0.04998
4447.69,0.05068
4441.9,0.05061
4436.11,0.05031
4430.33,0.05036
4424.54,0.05098
4418.76,0.05036
4412.97,0.05017
4407.18,0.05066
4401.4,0.05063
4395.61,0.05059
4389.82,0.05005
4384.04,0.05036
4378.25,0.05011
4372.47,0.05054
4366.68,0.05088
4360.89,0.05082
4355.11,0.05057
4349.32,0.05043
4343.53,0.05021
4337.75,0.05002
4331.96,0.05037
4326.18,0.05034
4320.39,0.05139
4314.6,0.05097
4308.82,0.05100
4303.03,0.05015
4297.24,0.05021
4291.46,0.05083
4285.67,0.05079
4279.89,0.05103
4274.1,0.05150
4268.31,0.05057
4262.53,0.05038
4256.74,0.05079
4250.95,0.05161
4245.17,0.05111
4239.38,0.05053
4233.6,0.05122
4227.81,0.05125
4222.02,0.05122
4216.24,0.05110
4210.45,0.05073
4204.66,0.05072
4198.88,0.05127
4193.09,0.05186
4187.31,0.05157
4181.52,0.05137
4175.73,0.05146
4169.95,0.05066
4164.16,0.05117
4158.37,0.05134
4152.59,0.05125
4146.8,0.05161
4141.02,0.05111
4135.23,0.05124
4129.44,0.05192
4123.66,0.05147
4117.87,0.05158
4112.09,0.05147
4106.3,0.05190
4100.51,0.05151
4094.73,0.05189
4088.94,0.05211
4083.15,0.05204
4077.37,0.05173
4071.58,0.05183
4065.8,0.05150
4060.01,0.05197
4054.22,0.05170
4048.44,0.05232
4042.65,0.05215
4036.86,0.05209
4031.08,0.05167
4025.29,0.05169
4019.51,0.05240
4013.72,0.05161
4007.93,0.05210
4002.15,0.05222
3996.36,0.05194
3990.57,0.05195
3984.79,0.05185
3979,0.05219
3973.22,0.05158
3967.43,0.05209
3961.64,0.05175
3955.86,0.05277
3950.07,0.05286
3944.28,0.05216
3938.5,0.05225
3932.71,0.05226
3926.93,0.05200
3921.14,0.05200
3915.35,0.05212
3909.57,0.05266
3903.78,0.05206
3897.99,0.05214
3892.21,0.05251
3886.42,0.05284
3880.64,0.05239
3874.85,0.05318
3869.06,0.05236
3863.28,0.05237
3857.49,0.05314
3851.7,0.05255
3845.92,0.05276
3840.13,0.05327
3834.35,0.05339
3828.56,0.05290
3822.77,0.05329
3816.99,0.05331
3811.2,0.05286
3805.41,0.05335
3799.63,0.05241
3793.84,0.05301
3788.06,0.05314
3782.27,0.05379
3776.48,0.05322
3770.7,0.05293
3764.91,0.05296
3759.12,0.05290
3753.34,0.05284
3747.55,0.05296
3741.77,0.05324
3735.98,0.05285
3730.19,0.05315
3724.41,0.05242
3718.62,0.05253
3712.83,0.05283
3707.05,0.05292
3701.26,0.05266
3695.48,0.05243
3689.69,0.05250
3683.9,0.05267
3678.12,0.05254
3672.33,0.05229
3666.54,0.05258
3660.76,0.05238
3654.97,0.05201
3649.19,0.04925
3643.4,0.05048
3637.61,0.05176
3631.83,0.05110
3626.04,0.04871
3620.25,0.04771
3614.47,0.04883
3608.68,0.05004
3602.9,0.05039
3597.11,0.05081
3591.32,0.05031
3585.54,0.05001
3579.75,0.05028
3573.97,0.04969
3568.18,0.04995
3562.39,0.04951
3556.61,0.04946
3550.82,0.04893
3545.03,0.04814
3539.25,0.04720
3533.46,0.04463
3527.68,0.04267
3521.89,0.04247
3516.1,0.04297
3510.32,0.04385
3504.53,0.04514
3498.74,0.04510
3492.96,0.04586
3487.17,0.04498
3481.39,0.04425
3475.6,0.04386
3469.81,0.04290
3464.03,0.04216
3458.24,0.04107
3452.45,0.04094
3446.67,0.04097
3440.88,0.04137
3435.1,0.04060
3429.31,0.04100
3423.52,0.04104
3417.74,0.04014
3411.95,0.04044
3406.16,0.03921
3400.38,0.03900
3394.59,0.03821
3388.81,0.03897
3383.02,0.04033
3377.23,0.04037
3371.45,0.04100
3365.66,0.04229
3359.87,0.04279
3354.09,0.04276
3348.3,0.04311
3342.52,0.04273
3336.73,0.04285
3330.94,0.04324
3325.16,0.04234
3319.37,0.04202
3313.58,0.04275
3307.8,0.04310
3302.01,0.04316
3296.23,0.04295
3290.44,0.04344
3284.65,0.04268
3278.87,0.04371
3273.08,0.04381
3267.29,0.04355
3261.51,0.04401
3255.72,0.04406
3249.94,0.04362
3244.15,0.04382
3238.36,0.04312
3232.58,0.04270
3226.79,0.04259
3221,0.04184
3215.22,0.04126
3209.43,0.04172
3203.65,0.04204
3197.86,0.04277
3192.07,0.04244
3186.29,0.04341
3180.5,0.04347
3174.71,0.04466
3168.93,0.04439
3163.14,0.04506
3157.36,0.04524
3151.57,0.04552
3145.78,0.04547
3140,0.04519
3134.21,0.04546
3128.42,0.04495
3122.64,0.04524
3116.85,0.04570
3111.07,0.04546
3105.28,0.04528
3099.49,0.04554
3093.71,0.04562
3087.92,0.04628
3082.14,0.04551
3076.35,0.04588
3070.56,0.04628
3064.78,0.04625
3058.99,0.04595
3053.2,0.04602
3047.42,0.04590
3041.63,0.04569
3035.85,0.04630
3030.06,0.04604
3024.27,0.04632
3018.49,0.04634
3012.7,0.04570
3006.91,0.04587
3001.13,0.04558
2995.34,0.04556
2989.56,0.04547
2983.77,0.04473
2977.98,0.04399
2972.2,0.04327
2966.41,0.04260
2960.62,0.04212
2954.84,0.04141
2949.05,0.04096
2943.27,0.04072
2937.48,0.04066
2931.69,0.04118
2925.91,0.04253
2920.12,0.04632
2914.33,0.04783
2908.55,0.04543
2902.76,0.04479
2896.98,0.04540
2891.19,0.04617
2885.4,0.04665
2879.62,0.04627
2873.83,0.04659
2868.04,0.04640
2862.26,0.04591
2856.47,0.04547
2850.69,0.04802
2844.9,0.04940
2839.11,0.04985
2833.33,0.05072
2827.54,0.05145
2821.75,0.05176
2815.97,0.05208
2810.18,0.05272
2804.4,0.05245
2798.61,0.05256
2792.82,0.05284
2787.04,0.05329
2781.25,0.05370
2775.46,0.05353
2769.68,0.05390
2763.89,0.05359
2758.11,0.05397
2752.32,0.05407
2746.53,0.05425
2740.75,0.05443
2734.96,0.05437
2729.17,0.05434
2723.39,0.05461
2717.6,0.05524
2711.82,0.05524
2706.03,0.05531
2700.24,0.05504
2694.46,0.05540
2688.67,0.05520
2682.88,0.05543
2677.1,0.05575
2671.31,0.05598
2665.53,0.05594
2659.74,0.05604
2653.95,0.05588
2648.17,0.05619
2642.38,0.05600
2636.59,0.05599
2630.81,0.05578
2625.02,0.05604
2619.24,0.05580
2613.45,0.05613
2607.66,0.05602
2601.88,0.05601
2596.09,0.05592
2590.3,0.05613
2584.52,0.05607
2578.73,0.05640
2572.95,0.05616
2567.16,0.05638
2561.37,0.05626
2555.59,0.05640
2549.8,0.05636
2544.02,0.05677
2538.23,0.05641
2532.44,0.05615
2526.66,0.05592
2520.87,0.05579
2515.08,0.05588
2509.3,0.05642
2503.51,0.05678
2497.73,0.05673
2491.94,0.05746
2486.15,0.05774
2480.37,0.05830
2474.58,0.05795
2468.79,0.05850
2463.01,0.05850
2457.22,0.05873
2451.44,0.05841
2445.65,0.05876
2439.86,0.05838
2434.08,0.05868
2428.29,0.05865
2422.5,0.05893
2416.72,0.05925
2410.93,0.05898
2405.15,0.05866
2399.36,0.05908
2393.57,0.05923
2387.79,0.05921
2382,0.05893
2376.21,0.05927
2370.43,0.05895
2364.64,0.05925
2358.86,0.05970
2353.07,0.05922
2347.28,0.05926
2341.5,0.05942
2335.71,0.05945
2329.92,0.05936
2324.14,0.05947
2318.35,0.05948
2312.57,0.05924
2306.78,0.05945
2300.99,0.05959
2295.21,0.05954
2289.42,0.05949
2283.63,0.05949
2277.85,0.05962
2272.06,0.05971
2266.28,0.05971
2260.49,0.05946
2254.7,0.05933
2248.92,0.05939
2243.13,0.05864
2237.34,0.05788
2231.56,0.05900
2225.77,0.05957
2219.99,0.05989
2214.2,0.05953
2208.41,0.05925
2202.63,0.05966
2196.84,0.05956
2191.05,0.05976
2185.27,0.06023
2179.48,0.06023
2173.7,0.06025
2167.91,0.06033
2162.12,0.06017
2156.34,0.06067
2150.55,0.06044
2144.76,0.06072
2138.98,0.06051
2133.19,0.06055
2127.41,0.06074
2121.62,0.06066
2115.83,0.06060
2110.05,0.06068
2104.26,0.06091
2098.47,0.06073
2092.69,0.06073
2086.9,0.06105
2081.12,0.06076
2075.33,0.06085
2069.54,0.06090
2063.76,0.06112
2057.97,0.06128
2052.19,0.06092
2046.4,0.06115
2040.61,0.06136
2034.83,0.06120
2029.04,0.06098
2023.25,0.06109
2017.47,0.06122
2011.68,0.06131
2005.9,0.06136
2000.11,0.06142
1994.32,0.06147
1988.54,0.06144
1982.75,0.06143
1976.96,0.06086
1971.18,0.06110
1965.39,0.06144
1959.61,0.06129
1953.82,0.06149
1948.03,0.06117
1942.25,0.06131
1936.46,0.06147
1930.67,0.06166
1924.89,0.06170
1919.1,0.06144
1913.32,0.06137
1907.53,0.06159
1901.74,0.06107
1895.96,0.06124
1890.17,0.06124
1884.38,0.06119
1878.6,0.06099
1872.81,0.06091
1867.03,0.06061
1861.24,0.06048
1855.45,0.06047
1849.67,0.06020
1843.88,0.06026
1838.09,0.05971
1832.31,0.05948
1826.52,0.05929
1820.74,0.05910
1814.95,0.05902
1809.16,0.05877
1803.38,0.05802
1797.59,0.05611
1791.8,0.05591
1786.02,0.05722
1780.23,0.05723
1774.45,0.05698
1768.66,0.05653
1762.87,0.05536
1757.09,0.05379
1751.3,0.05208
1745.51,0.04931
1739.73,0.04637
1733.94,0.04356
1728.16,0.04204
1722.37,0.04085
1716.58,0.03960
1710.8,0.03901
1705.01,0.03826
1699.22,0.03714
1693.44,0.03729
1687.65,0.03926
1681.87,0.04239
1676.08,0.04403
1670.29,0.04408
1664.51,0.04368
1658.72,0.04549
1652.93,0.04767
1647.15,0.04788
1641.36,0.04749
1635.58,0.04738
1629.79,0.04645
1624,0.04508
1618.22,0.04482
1612.43,0.04341
1606.64,0.04122
1600.86,0.04149
1595.07,0.04383
1589.29,0.04572
1583.5,0.04708
1577.71,0.04745
1571.93,0.04756
1566.14,0.04697
1560.35,0.04588
1554.57,0.04312
1548.78,0.04227
1543,0.04168
1537.21,0.04186
1531.42,0.04185
1525.64,0.04136
1519.85,0.04018
1514.07,0.03965
1508.28,0.04113
1502.49,0.04312
1496.71,0.04411
1490.92,0.04349
1485.13,0.04454
1479.35,0.04682
1473.56,0.04835
1467.78,0.04644
1461.99,0.04583
1456.2,0.04465
1450.42,0.04425
1444.63,0.04545
1438.84,0.04859
1433.06,0.04963
1427.27,0.05095
1421.49,0.05436
1415.7,0.05791
1409.91,0.05957
1404.13,0.05878
1398.34,0.05929
1392.55,0.06010
1386.77,0.06069
1380.98,0.06078
1375.2,0.06137
1369.41,0.06109
1363.62,0.06143
1357.84,0.06256
1352.05,0.06395
1346.26,0.06493
1340.48,0.06496
1334.69,0.06486
1328.91,0.06547
1323.12,0.06499
1317.33,0.06533
1311.55,0.06485
1305.76,0.06505
1299.97,0.06500
1294.19,0.06417
1288.4,0.06460
1282.62,0.06384
1276.83,0.06303
1271.04,0.06232
1265.26,0.06191
1259.47,0.06124
1253.68,0.06095
1247.9,0.06086
1242.11,0.06135
1236.33,0.06210
1230.54,0.06266
1224.75,0.06341
1218.97,0.06346
1213.18,0.06408
1207.39,0.06329
1201.61,0.06204
1195.82,0.06101
1190.04,0.06056
1184.25,0.06135
1178.46,0.06261
1172.68,0.06194
1166.89,0.06038
1161.1,0.05974
1155.32,0.06013
1149.53,0.05949
1143.75,0.06066
1137.96,0.06092
1132.17,0.06051
1126.39,0.05877
1120.6,0.05679
1114.81,0.05670
1109.03,0.05785
1103.24,0.05933
1097.46,0.06052
1091.67,0.05988
1085.88,0.06045
1080.1,0.06089
1074.31,0.06068
1068.52,0.06086
1062.74,0.06060
1056.95,0.05991
1051.17,0.05840
1045.38,0.05603
1039.59,0.05335
1033.81,0.05209
1028.02,0.05178
1022.24,0.05219
1016.45,0.05484
1010.66,0.05790
1004.88,0.05941
999.09,0.05921
993.304,0.05958
987.518,0.05972
981.731,0.05777
975.945,0.05396
970.159,0.05274
964.373,0.05558
958.586,0.05954
952.8,0.06189
947.014,0.06296
941.228,0.06378
935.441,0.06512
929.655,0.06512
923.869,0.06422
918.083,0.06314
912.297,0.06347
906.51,0.06495
900.724,0.06504
894.938,0.06139
889.152,0.05931
883.365,0.05739
877.579,0.05525
871.793,0.05423
866.007,0.06158
860.22,0.06086
854.434,0.05874
848.648,0.05894
842.862,0.05983
837.075,0.05976
831.289,0.05977
825.503,0.05917
819.717,0.05679
813.931,0.05488
808.144,0.05222
802.358,0.05124
796.572,0.05195
790.786,0.05280
784.999,0.05338
779.213,0.05424
773.427,0.05420
767.641,0.05483
761.854,0.05431
756.068,0.05386
750.282,0.05348
744.496,0.05370
738.709,0.05421
732.923,0.05514
727.137,0.05633
721.351,0.05567
715.565,0.05309
709.778,0.05453
703.992,0.05515
698.206,0.05429
692.42,0.05386
686.633,0.05336
680.847,0.05215
675.061,0.05079
669.275,0.05021
663.488,0.05160
657.702,0.04995
651.916,0.05073
646.13,0.05032
640.343,0.04979
634.557,0.04959
628.771,0.05089
622.985,0.04532
617.198,0.04420
611.412,0.04358
605.626,0.04384
599.84,0.04477