File: 01_Data/Rubber_Foam_Pipe_Insulation/FTIR/IS/Rubber_Foam_Pipe_Insulation_IS_S_220825_R2.dpt
7497.03,0.05059
7491.25,0.05095
7485.46,0.04864
7479.67,0.04929
7473.89,0.04832
7468.1,0.04510
7462.32,0.05374
7456.53,0.04687
7450.74,0.04568
7444.96,0.04189
7439.17,0.04935
7433.38,0.04765
7427.6,0.04461
7421.81,0.05053
7416.03,0.04405
7410.24,0.04902
7404.45,0.04650
7398.67,0.04658
7392.88,0.04721
7387.09,0.04610
7381.31,0.04332
7375.52,0.04316
7369.74,0.03884
7363.95,0.04194
7358.16,0.04801
7352.38,0.05173
7346.59,0.05035
7340.8,0.04658
7335.02,0.04945
7329.23,0.05453
7323.45,0.05040
7317.66,0.04687
7311.87,0.04648
7306.09,0.04307
7300.3,0.04915
7294.51,0.05040
7288.73,0.04792
7282.94,0.04994
7277.16,0.05041
7271.37,0.04840
7265.58,0.05179
7259.8,0.04896
7254.01,0.04768
7248.22,0.05354
7242.44,0.04342
7236.65,0.05319
7230.87,0.05068
7225.08,0.05167
7219.29,0.04683
7213.51,0.04257
7207.72,0.04383
7201.93,0.04550
7196.15,0.04163
7190.36,0.04533
7184.58,0.05035
7178.79,0.04546
7173,0.05137
7167.22,0.05332
7161.43,0.04981
7155.65,0.04324
7149.86,0.04952
7144.07,0.05276
7138.29,0.05137
7132.5,0.04883
7126.71,0.04685
7120.93,0.04301
7115.14,0.04504
7109.36,0.04929
7103.57,0.04605
7097.78,0.05086
7092,0.05050
7086.21,0.04465
7080.42,0.04128
7074.64,0.04290
7068.85,0.04393
7063.07,0.04098
7057.28,0.04717
7051.49,0.04682
7045.71,0.04640
7039.92,0.04611
7034.13,0.05233
7028.35,0.04720
7022.56,0.04805
7016.78,0.04824
7010.99,0.04153
7005.2,0.04786
6999.42,0.04832
6993.63,0.04812
6987.84,0.04463
6982.06,0.04647
6976.27,0.04692
6970.49,0.04183
6964.7,0.04756
6958.91,0.04750
6953.13,0.04654
6947.34,0.04343
6941.55,0.04380
6935.77,0.04449
6929.98,0.04137
6924.2,0.04440
6918.41,0.04771
6912.62,0.04334
6906.84,0.04520
6901.05,0.04863
6895.26,0.04671
6889.48,0.04668
6883.69,0.04366
6877.91,0.04840
6872.12,0.05091
6866.33,0.04695
6860.55,0.04391
6854.76,0.04790
6848.97,0.04702
6843.19,0.04829
6837.4,0.04691
6831.62,0.04805
6825.83,0.04481
6820.04,0.04069
6814.26,0.04356
6808.47,0.04349
6802.68,0.05212
6796.9,0.04569
6791.11,0.04851
6785.33,0.04343
6779.54,0.04682
6773.75,0.04687
6767.97,0.04205
6762.18,0.04794
6756.39,0.04597
6750.61,0.05050
6744.82,0.04603
6739.04,0.04788
6733.25,0.04729
6727.46,0.04565
6721.68,0.04503
6715.89,0.04962
6710.1,0.04711
6704.32,0.04461
6698.53,0.04576
6692.75,0.04835
6686.96,0.04969
6681.17,0.04949
6675.39,0.04314
6669.6,0.04746
6663.82,0.05004
6658.03,0.04853
6652.24,0.04976
6646.46,0.04568
6640.67,0.04557
6634.88,0.04505
6629.1,0.03978
6623.31,0.04667
6617.53,0.04314
6611.74,0.04924
6605.95,0.04715
6600.17,0.04574
6594.38,0.04817
6588.59,0.04849
6582.81,0.04586
6577.02,0.04777
6571.24,0.04824
6565.45,0.04788
6559.66,0.04892
6553.88,0.04306
6548.09,0.04077
6542.3,0.04283
6536.52,0.04347
6530.73,0.04380
6524.95,0.04486
6519.16,0.04021
6513.37,0.04385
6507.59,0.04363
6501.8,0.04682
6496.01,0.04328
6490.23,0.04558
6484.44,0.04869
6478.66,0.04290
6472.87,0.04881
6467.08,0.04502
6461.3,0.04216
6455.51,0.04675
6449.72,0.04551
6443.94,0.05072
6438.15,0.04367
6432.37,0.04328
6426.58,0.04945
6420.79,0.04705
6415.01,0.04700
6409.22,0.04794
6403.43,0.04509
6397.65,0.04649
6391.86,0.04516
6386.08,0.04514
6380.29,0.04857
6374.5,0.04587
6368.72,0.04610
6362.93,0.04794
6357.14,0.04535
6351.36,0.04498
6345.57,0.04694
6339.79,0.04584
6334,0.04483
6328.21,0.04478
6322.43,0.04807
6316.64,0.04961
6310.85,0.04933
6305.07,0.04537
6299.28,0.04710
6293.5,0.04635
6287.71,0.04749
6281.92,0.04807
6276.14,0.04627
6270.35,0.04415
6264.56,0.04400
6258.78,0.04509
6252.99,0.04557
6247.21,0.04873
6241.42,0.04425
6235.63,0.04455
6229.85,0.04675
6224.06,0.04753
6218.27,0.04738
6212.49,0.04315
6206.7,0.04649
6200.92,0.04724
6195.13,0.04587
6189.34,0.04558
6183.56,0.04625
6177.77,0.04849
6171.98,0.04698
6166.2,0.04794
6160.41,0.04645
6154.63,0.04471
6148.84,0.04372
6143.05,0.04673
6137.27,0.04605
6131.48,0.04461
6125.7,0.04418
6119.91,0.04586
6114.12,0.04781
6108.34,0.04759
6102.55,0.04808
6096.76,0.04728
6090.98,0.04573
6085.19,0.04378
6079.41,0.04519
6073.62,0.04649
6067.83,0.04600
6062.05,0.04721
6056.26,0.04406
6050.47,0.04599
6044.69,0.04773
6038.9,0.04759
6033.12,0.04619
6027.33,0.04700
6021.54,0.04687
6015.76,0.04590
6009.97,0.04623
6004.18,0.04466
5998.4,0.04379
5992.61,0.04557
5986.83,0.04562
5981.04,0.04480
5975.25,0.04661
5969.47,0.04672
5963.68,0.04618
5957.89,0.04546
5952.11,0.04819
5946.32,0.04649
5940.54,0.04562
5934.75,0.04563
5928.96,0.04692
5923.18,0.04608
5917.39,0.04662
5911.6,0.04722
5905.82,0.04782
5900.03,0.04482
5894.25,0.04661
5888.46,0.04519
5882.67,0.04908
5876.89,0.04816
5871.1,0.04691
5865.31,0.04572
5859.53,0.04648
5853.74,0.04751
5847.96,0.04564
5842.17,0.04670
5836.38,0.04770
5830.6,0.04647
5824.81,0.04343
5819.02,0.04421
5813.24,0.04577
5807.45,0.04677
5801.67,0.04705
5795.88,0.04658
5790.09,0.04680
5784.31,0.04558
5778.52,0.04679
5772.73,0.04535
5766.95,0.04726
5761.16,0.04659
5755.38,0.04691
5749.59,0.04676
5743.8,0.04524
5738.02,0.04566
5732.23,0.04563
5726.44,0.04743
5720.66,0.04618
5714.87,0.04747
5709.09,0.04616
5703.3,0.04713
5697.51,0.04691
5691.73,0.04841
5685.94,0.04810
5680.15,0.04838
5674.37,0.04791
5668.58,0.04452
5662.8,0.04896
5657.01,0.04638
5651.22,0.04798
5645.44,0.04798
5639.65,0.04557
5633.87,0.04645
5628.08,0.04740
5622.29,0.04761
5616.51,0.04745
5610.72,0.04869
5604.93,0.04828
5599.15,0.04742
5593.36,0.04796
5587.58,0.04778
5581.79,0.04772
5576,0.04809
5570.22,0.04706
5564.43,0.04624
5558.64,0.04741
5552.86,0.04790
5547.07,0.04831
5541.29,0.04816
5535.5,0.04851
5529.71,0.04853
5523.93,0.04717
5518.14,0.04522
5512.35,0.04712
5506.57,0.04772
5500.78,0.04606
5495,0.04856
5489.21,0.04830
5483.42,0.04937
5477.64,0.04969
5471.85,0.04743
5466.06,0.04778
5460.28,0.04700
5454.49,0.04802
5448.71,0.04728
5442.92,0.04693
5437.13,0.04693
5431.35,0.04871
5425.56,0.04890
5419.77,0.04641
5413.99,0.04690
5408.2,0.04822
5402.42,0.04720
5396.63,0.04733
5390.84,0.04766
5385.06,0.04843
5379.27,0.04819
5373.48,0.04768
5367.7,0.04689
5361.91,0.04630
5356.13,0.04643
5350.34,0.04736
5344.55,0.04823
5338.77,0.04775
5332.98,0.04652
5327.19,0.04717
5321.41,0.04794
5315.62,0.04905
5309.84,0.04855
5304.05,0.04811
5298.26,0.04798
5292.48,0.04865
5286.69,0.04770
5280.9,0.04883
5275.12,0.04844
5269.33,0.04763
5263.55,0.04834
5257.76,0.04826
5251.97,0.04772
5246.19,0.04914
5240.4,0.04860
5234.61,0.04930
5228.83,0.04803
5223.04,0.04726
5217.26,0.04846
5211.47,0.04759
5205.68,0.04734
5199.9,0.04928
5194.11,0.04979
5188.32,0.04798
5182.54,0.04927
5176.75,0.04820
5170.97,0.04846
5165.18,0.04743
5159.39,0.04781
5153.61,0.04780
5147.82,0.04806
5142.03,0.04938
5136.25,0.04792
5130.46,0.04768
5124.68,0.04848
5118.89,0.04945
5113.1,0.04852
5107.32,0.04851
5101.53,0.04828
5095.75,0.04954
5089.96,0.04869
5084.17,0.04913
5078.39,0.04912
5072.6,0.04898
5066.81,0.04912
5061.03,0.04841
5055.24,0.04855
5049.46,0.04873
5043.67,0.04918
5037.88,0.04983
5032.1,0.04836
5026.31,0.04854
5020.52,0.04888
5014.74,0.04967
5008.95,0.04751
5003.17,0.04936
4997.38,0.04973
4991.59,0.04877
4985.81,0.05025
4980.02,0.04821
4974.23,0.04961
4968.45,0.04905
4962.66,0.05015
4956.88,0.04969
4951.09,0.04873
4945.3,0.04917
4939.52,0.04996
4933.73,0.04852
4927.94,0.04895
4922.16,0.05008
4916.37,0.04903
4910.59,0.04905
4904.8,0.04860
4899.01,0.04914
4893.23,0.04900
4887.44,0.04965
4881.65,0.05013
4875.87,0.04834
4870.08,0.04937
4864.3,0.04886
4858.51,0.04833
4852.72,0.04900
4846.94,0.04975
4841.15,0.04835
4835.36,0.04964
4829.58,0.04974
4823.79,0.04932
4818.01,0.04950
4812.22,0.04987
4806.43,0.04927
4800.65,0.04963
4794.86,0.05036
4789.07,0.04906
4783.29,0.04994
4777.5,0.04826
4771.72,0.04865
4765.93,0.04951
4760.14,0.04917
4754.36,0.05022
4748.57,0.04979
4742.78,0.05054
4737,0.04886
4731.21,0.04976
4725.43,0.04965
4719.64,0.05017
4713.85,0.05054
4708.07,0.05027
4702.28,0.05032
4696.49,0.04996
4690.71,0.04999
4684.92,0.04845
4679.14,0.04890
4673.35,0.05009
4667.56,0.04927
4661.78,0.05021
4655.99,0.05019
4650.2,0.05056
4644.42,0.05048
4638.63,0.04985
4632.85,0.05045
4627.06,0.05062
4621.27,0.05076
4615.49,0.04980
4609.7,0.04982
4603.92,0.05056
4598.13,0.05003
4592.34,0.05000
4586.56,0.05046
4580.77,0.04994
4574.98,0.05074
4569.2,0.05049
4563.41,0.05023
4557.63,0.05093
4551.84,0.05077
4546.05,0.05031
4540.27,0.05021
4534.48,0.05094
4528.69,0.05103
4522.91,0.05005
4517.12,0.05041
4511.34,0.05081
4505.55,0.05121
4499.76,0.05073
4493.98,0.05069
4488.19,0.04999
4482.4,0.04974
4476.62,0.04990
4470.83,0.05011
4465.05,0.05051
4459.26,0.05034
4453.47,0.05096
4447.69,0.05018
4441.9,0.05060
4436.11,0.05085
4430.33,0.05034
4424.54,0.05045
4418.76,0.05048
4412.97,0.05061
4407.18,0.05115
4401.4,0.05096
4395.61,0.05088
4389.82,0.05075
4384.04,0.05159
4378.25,0.05068
4372.47,0.05111
4366.68,0.05084
4360.89,0.05143
4355.11,0.05066
4349.32,0.05071
4343.53,0.05057
4337.75,0.05006
4331.96,0.05043
4326.18,0.05073
4320.39,0.05056
4314.6,0.05128
4308.82,0.05107
4303.03,0.05107
4297.24,0.05166
4291.46,0.05102
4285.67,0.05007
4279.89,0.05158
4274.1,0.05155
4268.31,0.05142
4262.53,0.05074
4256.74,0.05077
4250.95,0.05110
4245.17,0.05163
4239.38,0.05147
4233.6,0.05106
4227.81,0.05158
4222.02,0.05196
4216.24,0.05190
4210.45,0.05162
4204.66,0.05182
4198.88,0.05219
4193.09,0.05156
4187.31,0.05218
4181.52,0.05096
4175.73,0.05165
4169.95,0.05142
4164.16,0.05170
4158.37,0.05145
4152.59,0.05180
4146.8,0.05175
4141.02,0.05189
4135.23,0.05126
4129.44,0.05144
4123.66,0.05158
4117.87,0.05179
4112.09,0.05170
4106.3,0.05228
4100.51,0.05199
4094.73,0.05186
4088.94,0.05197
4083.15,0.05152
4077.37,0.05171
4071.58,0.05217
4065.8,0.05242
4060.01,0.05193
4054.22,0.05183
4048.44,0.05204
4042.65,0.05225
4036.86,0.05233
4031.08,0.05222
4025.29,0.05167
4019.51,0.05145
4013.72,0.05190
4007.93,0.05266
4002.15,0.05242
3996.36,0.05257
3990.57,0.05209
3984.79,0.05230
3979,0.05263
3973.22,0.05181
3967.43,0.05198
3961.64,0.05219
3955.86,0.05228
3950.07,0.05259
3944.28,0.05178
3938.5,0.05214
3932.71,0.05221
3926.93,0.05289
3921.14,0.05232
3915.35,0.05258
3909.57,0.05239
3903.78,0.05309
3897.99,0.05292
3892.21,0.05294
3886.42,0.05262
3880.64,0.05289
3874.85,0.05270
3869.06,0.05277
3863.28,0.05290
3857.49,0.05285
3851.7,0.05199
3845.92,0.05264
3840.13,0.05298
3834.35,0.05301
3828.56,0.05385
3822.77,0.05338
3816.99,0.05297
3811.2,0.05291
3805.41,0.05357
3799.63,0.05354
3793.84,0.05313
3788.06,0.05276
3782.27,0.05329
3776.48,0.05315
3770.7,0.05396
3764.91,0.05304
3759.12,0.05367
3753.34,0.05335
3747.55,0.05349
3741.77,0.05334
3735.98,0.05283
3730.19,0.05260
3724.41,0.05274
3718.62,0.05290
3712.83,0.05273
3707.05,0.05267
3701.26,0.05262
3695.48,0.05305
3689.69,0.05236
3683.9,0.05298
3678.12,0.05315
3672.33,0.05298
3666.54,0.05227
3660.76,0.05221
3654.97,0.05186
3649.19,0.04889
3643.4,0.05112
3637.61,0.05151
3631.83,0.05136
3626.04,0.04995
3620.25,0.04779
3614.47,0.04931
3608.68,0.05012
3602.9,0.05019
3597.11,0.05141
3591.32,0.05077
3585.54,0.05033
3579.75,0.05014
3573.97,0.04992
3568.18,0.05041
3562.39,0.04975
3556.61,0.04911
3550.82,0.04908
3545.03,0.04840
3539.25,0.04748
3533.46,0.04558
3527.68,0.04292
3521.89,0.04267
3516.1,0.04304
3510.32,0.04427
3504.53,0.04511
3498.74,0.04495
3492.96,0.04574
3487.17,0.04462
3481.39,0.04467
3475.6,0.04378
3469.81,0.04362
3464.03,0.04235
3458.24,0.04195
3452.45,0.04188
3446.67,0.04141
3440.88,0.04169
3435.1,0.04061
3429.31,0.04102
3423.52,0.04098
3417.74,0.04027
3411.95,0.04012
3406.16,0.03911
3400.38,0.03928
3394.59,0.03879
3388.81,0.03949
3383.02,0.04020
3377.23,0.04054
3371.45,0.04252
3365.66,0.04227
3359.87,0.04234
3354.09,0.04288
3348.3,0.04336
3342.52,0.04285
3336.73,0.04329
3330.94,0.04334
3325.16,0.04291
3319.37,0.04378
3313.58,0.04248
3307.8,0.04273
3302.01,0.04269
3296.23,0.04310
3290.44,0.04323
3284.65,0.04312
3278.87,0.04362
3273.08,0.04324
3267.29,0.04416
3261.51,0.04420
3255.72,0.04388
3249.94,0.04371
3244.15,0.04381
3238.36,0.04305
3232.58,0.04273
3226.79,0.04223
3221,0.04188
3215.22,0.04196
3209.43,0.04199
3203.65,0.04197
3197.86,0.04234
3192.07,0.04307
3186.29,0.04249
3180.5,0.04368
3174.71,0.04409
3168.93,0.04454
3163.14,0.04496
3157.36,0.04530
3151.57,0.04535
3145.78,0.04608
3140,0.04516
3134.21,0.04486
3128.42,0.04528
3122.64,0.04517
3116.85,0.04502
3111.07,0.04572
3105.28,0.04590
3099.49,0.04591
3093.71,0.04591
3087.92,0.04624
3082.14,0.04597
3076.35,0.04679
3070.56,0.04658
3064.78,0.04628
3058.99,0.04618
3053.2,0.04620
3047.42,0.04631
3041.63,0.04614
3035.85,0.04647
3030.06,0.04624
3024.27,0.04649
3018.49,0.04645
3012.7,0.04604
3006.91,0.04618
3001.13,0.04632
2995.34,0.04593
2989.56,0.04541
2983.77,0.04500
2977.98,0.04456
2972.2,0.04395
2966.41,0.04286
2960.62,0.04184
2954.84,0.04180
2949.05,0.04082
2943.27,0.04106
2937.48,0.04078
2931.69,0.04119
2925.91,0.04278
2920.12,0.04624
2914.33,0.04778
2908.55,0.04487
2902.76,0.04558
2896.98,0.04611
2891.19,0.04682
2885.4,0.04734
2879.62,0.04716
2873.83,0.04715
2868.04,0.04691
2862.26,0.04613
2856.47,0.04621
2850.69,0.04840
2844.9,0.04973
2839.11,0.05000
2833.33,0.05101
2827.54,0.05213
2821.75,0.05244
2815.97,0.05262
2810.18,0.05238
2804.4,0.05274
2798.61,0.05341
2792.82,0.05392
2787.04,0.05394
2781.25,0.05393
2775.46,0.05379
2769.68,0.05338
2763.89,0.05413
2758.11,0.05432
2752.32,0.05435
2746.53,0.05456
2740.75,0.05494
2734.96,0.05476
2729.17,0.05474
2723.39,0.05501
2717.6,0.05541
2711.82,0.05578
2706.03,0.05558
2700.24,0.05541
2694.46,0.05568
2688.67,0.05534
2682.88,0.05570
2677.1,0.05628
2671.31,0.05605
2665.53,0.05598
2659.74,0.05593
2653.95,0.05615
2648.17,0.05653
2642.38,0.05656
2636.59,0.05623
2630.81,0.05645
2625.02,0.05620
2619.24,0.05634
2613.45,0.05624
2607.66,0.05646
2601.88,0.05616
2596.09,0.05645
2590.3,0.05606
2584.52,0.05642
2578.73,0.05647
2572.95,0.05642
2567.16,0.05652
2561.37,0.05661
2555.59,0.05664
2549.8,0.05653
2544.02,0.05681
2538.23,0.05652
2532.44,0.05629
2526.66,0.05639
2520.87,0.05634
2515.08,0.05624
2509.3,0.05636
2503.51,0.05691
2497.73,0.05748
2491.94,0.05751
2486.15,0.05842
2480.37,0.05835
2474.58,0.05883
2468.79,0.05869
2463.01,0.05873
2457.22,0.05911
2451.44,0.05918
2445.65,0.05906
2439.86,0.05939
2434.08,0.05892
2428.29,0.05911
2422.5,0.05941
2416.72,0.05938
2410.93,0.05918
2405.15,0.05952
2399.36,0.05952
2393.57,0.05952
2387.79,0.05960
2382,0.05940
2376.21,0.05976
2370.43,0.05968
2364.64,0.05959
2358.86,0.05973
2353.07,0.05956
2347.28,0.05963
2341.5,0.05934
2335.71,0.05971
2329.92,0.05964
2324.14,0.05955
2318.35,0.05992
2312.57,0.05961
2306.78,0.05968
2300.99,0.06005
2295.21,0.06004
2289.42,0.06017
2283.63,0.06014
2277.85,0.06033
2272.06,0.06033
2266.28,0.06008
2260.49,0.06030
2254.7,0.06029
2248.92,0.05998
2243.13,0.05899
2237.34,0.05841
2231.56,0.05921
2225.77,0.05966
2219.99,0.06016
2214.2,0.05991
2208.41,0.06005
2202.63,0.06018
2196.84,0.06012
2191.05,0.06066
2185.27,0.06063
2179.48,0.06056
2173.7,0.06083
2167.91,0.06064
2162.12,0.06084
2156.34,0.06112
2150.55,0.06111
2144.76,0.06069
2138.98,0.06094
2133.19,0.06109
2127.41,0.06104
2121.62,0.06139
2115.83,0.06143
2110.05,0.06126
2104.26,0.06115
2098.47,0.06109
2092.69,0.06123
2086.9,0.06120
2081.12,0.06141
2075.33,0.06134
2069.54,0.06139
2063.76,0.06158
2057.97,0.06155
2052.19,0.06131
2046.4,0.06159
2040.61,0.06172
2034.83,0.06159
2029.04,0.06163
2023.25,0.06139
2017.47,0.06155
2011.68,0.06154
2005.9,0.06200
2000.11,0.06214
1994.32,0.06154
1988.54,0.06138
1982.75,0.06139
1976.96,0.06147
1971.18,0.06168
1965.39,0.06156
1959.61,0.06143
1953.82,0.06208
1948.03,0.06213
1942.25,0.06187
1936.46,0.06184
1930.67,0.06164
1924.89,0.06192
1919.1,0.06209
1913.32,0.06211
1907.53,0.06173
1901.74,0.06187
1895.96,0.06218
1890.17,0.06187
1884.38,0.06199
1878.6,0.06172
1872.81,0.06140
1867.03,0.06102
1861.24,0.06079
1855.45,0.06064
1849.67,0.06077
1843.88,0.06045
1838.09,0.05997
1832.31,0.05995
1826.52,0.05977
1820.74,0.05926
1814.95,0.05935
1809.16,0.05899
1803.38,0.05808
1797.59,0.05648
1791.8,0.05642
1786.02,0.05788
1780.23,0.05777
1774.45,0.05734
1768.66,0.05668
1762.87,0.05589
1757.09,0.05450
1751.3,0.05235
1745.51,0.04976
1739.73,0.04674
1733.94,0.04387
1728.16,0.04239
1722.37,0.04101
1716.58,0.03969
1710.8,0.03921
1705.01,0.03856
1699.22,0.03755
1693.44,0.03694
1687.65,0.03970
1681.87,0.04264
1676.08,0.04433
1670.29,0.04444
1664.51,0.04434
1658.72,0.04579
1652.93,0.04768
1647.15,0.04820
1641.36,0.04747
1635.58,0.04758
1629.79,0.04687
1624,0.04567
1618.22,0.04503
1612.43,0.04377
1606.64,0.04113
1600.86,0.04166
1595.07,0.04379
1589.29,0.04581
1583.5,0.04677
1577.71,0.04813
1571.93,0.04784
1566.14,0.04724
1560.35,0.04597
1554.57,0.04384
1548.78,0.04253
1543,0.04206
1537.21,0.04210
1531.42,0.04242
1525.64,0.04200
1519.85,0.04065
1514.07,0.03959
1508.28,0.04100
1502.49,0.04360
1496.71,0.04403
1490.92,0.04373
1485.13,0.04457
1479.35,0.04740
1473.56,0.04847
1467.78,0.04681
1461.99,0.04579
1456.2,0.04523
1450.42,0.04426
1444.63,0.04584
1438.84,0.04881
1433.06,0.04985
1427.27,0.05127
1421.49,0.05439
1415.7,0.05789
1409.91,0.05980
1404.13,0.05948
1398.34,0.05929
1392.55,0.06027
1386.77,0.06171
1380.98,0.06151
1375.2,0.06162
1369.41,0.06170
1363.62,0.06179
1357.84,0.06275
1352.05,0.06449
1346.26,0.06537
1340.48,0.06542
1334.69,0.06539
1328.91,0.06538
1323.12,0.06553
1317.33,0.06555
1311.55,0.06521
1305.76,0.06538
1299.97,0.06485
1294.19,0.06511
1288.4,0.06458
1282.62,0.06457
1276.83,0.06364
1271.04,0.06280
1265.26,0.06254
1259.47,0.06136
1253.68,0.06087
1247.9,0.06154
1242.11,0.06162
1236.33,0.06257
1230.54,0.06288
1224.75,0.06380
1218.97,0.06437
1213.18,0.06396
1207.39,0.06379
1201.61,0.06251
1195.82,0.06118
1190.04,0.06104
1184.25,0.06169
1178.46,0.06264
1172.68,0.06175
1166.89,0.06063
1161.1,0.06016
1155.32,0.06066
1149.53,0.06011
1143.75,0.06130
1137.96,0.06134
1132.17,0.06087
1126.39,0.05943
1120.6,0.05707
1114.81,0.05692
1109.03,0.05770
1103.24,0.05942
1097.46,0.05943
1091.67,0.06050
1085.88,0.06074
1080.1,0.06184
1074.31,0.06241
1068.52,0.06123
1062.74,0.06053
1056.95,0.05997
1051.17,0.05838
1045.38,0.05638
1039.59,0.05439
1033.81,0.05260
1028.02,0.05099
1022.24,0.05272
1016.45,0.05439
1010.66,0.05755
1004.88,0.05959
999.09,0.05980
993.304,0.06079
987.518,0.05961
981.731,0.05796
975.945,0.05451
970.159,0.05324
964.373,0.05618
958.586,0.05977
952.8,0.06209
947.014,0.06330
941.228,0.06434
935.441,0.06526
929.655,0.06485
923.869,0.06476
918.083,0.06378
912.297,0.06390
906.51,0.06548
900.724,0.06493
894.938,0.06174
889.152,0.05995
883.365,0.05760
877.579,0.05599
871.793,0.05470
866.007,0.06184
860.22,0.06173
854.434,0.05759
848.648,0.05953
842.862,0.06005
837.075,0.06011
831.289,0.06007
825.503,0.05914
819.717,0.05741
813.931,0.05513
808.144,0.05290
802.358,0.05216
796.572,0.05217
790.786,0.05297
784.999,0.05412
779.213,0.05472
773.427,0.05478
767.641,0.05478
761.854,0.05455
756.068,0.05336
750.282,0.05403
744.496,0.05361
738.709,0.05430
732.923,0.05497
727.137,0.05576
721.351,0.05659
715.565,0.05286
709.778,0.05471
703.992,0.05527
698.206,0.05493
692.42,0.05486
686.633,0.05357
680.847,0.05156
675.061,0.05058
669.275,0.05061
663.488,0.05175
657.702,0.05134
651.916,0.05218
646.13,0.05173
640.343,0.05058
634.557,0.04871
628.771,0.04721
622.985,0.04629
617.198,0.04536
611.412,0.04609
605.626,0.04536
599.84,0.04764