File: 01_Data/Rubber_Foam_Pipe_Insulation/FTIR/IS/Rubber_Foam_Pipe_Insulation_IS_S_220825_R5.dpt
7497.03,0.05054
7491.25,0.04736
7485.46,0.03784
7479.67,0.05682
7473.89,0.04219
7468.1,0.04562
7462.32,0.04774
7456.53,0.04145
7450.74,0.04333
7444.96,0.05090
7439.17,0.04486
7433.38,0.03881
7427.6,0.04862
7421.81,0.04426
7416.03,0.04838
7410.24,0.04049
7404.45,0.04146
7398.67,0.03874
7392.88,0.04553
7387.09,0.04536
7381.31,0.04436
7375.52,0.05135
7369.74,0.04683
7363.95,0.04747
7358.16,0.04752
7352.38,0.05041
7346.59,0.04353
7340.8,0.04109
7335.02,0.04677
7329.23,0.04781
7323.45,0.05094
7317.66,0.04444
7311.87,0.05100
7306.09,0.04841
7300.3,0.05083
7294.51,0.04852
7288.73,0.04878
7282.94,0.04603
7277.16,0.03951
7271.37,0.04613
7265.58,0.05371
7259.8,0.04634
7254.01,0.04746
7248.22,0.04306
7242.44,0.04399
7236.65,0.05010
7230.87,0.04870
7225.08,0.05163
7219.29,0.04611
7213.51,0.05330
7207.72,0.05329
7201.93,0.04473
7196.15,0.04344
7190.36,0.04177
7184.58,0.03843
7178.79,0.04233
7173,0.05268
7167.22,0.04747
7161.43,0.04697
7155.65,0.04506
7149.86,0.04646
7144.07,0.04648
7138.29,0.04330
7132.5,0.04611
7126.71,0.04593
7120.93,0.04798
7115.14,0.04877
7109.36,0.05276
7103.57,0.04584
7097.78,0.04699
7092,0.04299
7086.21,0.04420
7080.42,0.04852
7074.64,0.04342
7068.85,0.04118
7063.07,0.04933
7057.28,0.04820
7051.49,0.04309
7045.71,0.04477
7039.92,0.04821
7034.13,0.04405
7028.35,0.04940
7022.56,0.04900
7016.78,0.04976
7010.99,0.04797
7005.2,0.04861
6999.42,0.04492
6993.63,0.04457
6987.84,0.03710
6982.06,0.04309
6976.27,0.04707
6970.49,0.04227
6964.7,0.04671
6958.91,0.03943
6953.13,0.04310
6947.34,0.03915
6941.55,0.04495
6935.77,0.04124
6929.98,0.04937
6924.2,0.04317
6918.41,0.04310
6912.62,0.04287
6906.84,0.03996
6901.05,0.05201
6895.26,0.05196
6889.48,0.04406
6883.69,0.04914
6877.91,0.04693
6872.12,0.04421
6866.33,0.04656
6860.55,0.04928
6854.76,0.05006
6848.97,0.04819
6843.19,0.04521
6837.4,0.04838
6831.62,0.04675
6825.83,0.04844
6820.04,0.04584
6814.26,0.04217
6808.47,0.04110
6802.68,0.04551
6796.9,0.05211
6791.11,0.05061
6785.33,0.04537
6779.54,0.04350
6773.75,0.04447
6767.97,0.04770
6762.18,0.04561
6756.39,0.05057
6750.61,0.05082
6744.82,0.04489
6739.04,0.04674
6733.25,0.04809
6727.46,0.04644
6721.68,0.04731
6715.89,0.04273
6710.1,0.04375
6704.32,0.04546
6698.53,0.04426
6692.75,0.04108
6686.96,0.04249
6681.17,0.04860
6675.39,0.04460
6669.6,0.04635
6663.82,0.04679
6658.03,0.04546
6652.24,0.04847
6646.46,0.04496
6640.67,0.04460
6634.88,0.04691
6629.1,0.04560
6623.31,0.04940
6617.53,0.04576
6611.74,0.04749
6605.95,0.04347
6600.17,0.04593
6594.38,0.04237
6588.59,0.04370
6582.81,0.04965
6577.02,0.04548
6571.24,0.04269
6565.45,0.04286
6559.66,0.04947
6553.88,0.05225
6548.09,0.04639
6542.3,0.04638
6536.52,0.04641
6530.73,0.04530
6524.95,0.05058
6519.16,0.05180
6513.37,0.04525
6507.59,0.04577
6501.8,0.04804
6496.01,0.04276
6490.23,0.04690
6484.44,0.04871
6478.66,0.04309
6472.87,0.04576
6467.08,0.04315
6461.3,0.04693
6455.51,0.04618
6449.72,0.04389
6443.94,0.04784
6438.15,0.04313
6432.37,0.04197
6426.58,0.04173
6420.79,0.04434
6415.01,0.04178
6409.22,0.04527
6403.43,0.04541
6397.65,0.04411
6391.86,0.04229
6386.08,0.04063
6380.29,0.04749
6374.5,0.04513
6368.72,0.04571
6362.93,0.04682
6357.14,0.04577
6351.36,0.04429
6345.57,0.04502
6339.79,0.04425
6334,0.04579
6328.21,0.04424
6322.43,0.04559
6316.64,0.04516
6310.85,0.04825
6305.07,0.04613
6299.28,0.04798
6293.5,0.04322
6287.71,0.04619
6281.92,0.04455
6276.14,0.04660
6270.35,0.04766
6264.56,0.04793
6258.78,0.04767
6252.99,0.04456
6247.21,0.04547
6241.42,0.04517
6235.63,0.04658
6229.85,0.04829
6224.06,0.04480
6218.27,0.04790
6212.49,0.04700
6206.7,0.04361
6200.92,0.04445
6195.13,0.04384
6189.34,0.04250
6183.56,0.04431
6177.77,0.04806
6171.98,0.04340
6166.2,0.04726
6160.41,0.04605
6154.63,0.04479
6148.84,0.04730
6143.05,0.04504
6137.27,0.04612
6131.48,0.04450
6125.7,0.04315
6119.91,0.04675
6114.12,0.04701
6108.34,0.04696
6102.55,0.04481
6096.76,0.04586
6090.98,0.04733
6085.19,0.04718
6079.41,0.04486
6073.62,0.04752
6067.83,0.04698
6062.05,0.04470
6056.26,0.04710
6050.47,0.04709
6044.69,0.04739
6038.9,0.04516
6033.12,0.04587
6027.33,0.04439
6021.54,0.04474
6015.76,0.04828
6009.97,0.04803
6004.18,0.04535
5998.4,0.04709
5992.61,0.04467
5986.83,0.04290
5981.04,0.04523
5975.25,0.04452
5969.47,0.04728
5963.68,0.04683
5957.89,0.04692
5952.11,0.04600
5946.32,0.04675
5940.54,0.04710
5934.75,0.04649
5928.96,0.04871
5923.18,0.04844
5917.39,0.04496
5911.6,0.04491
5905.82,0.04613
5900.03,0.04836
5894.25,0.04752
5888.46,0.04797
5882.67,0.04522
5876.89,0.04466
5871.1,0.04706
5865.31,0.04562
5859.53,0.04752
5853.74,0.04544
5847.96,0.04664
5842.17,0.04393
5836.38,0.04762
5830.6,0.04781
5824.81,0.04642
5819.02,0.04463
5813.24,0.04682
5807.45,0.04687
5801.67,0.04802
5795.88,0.04462
5790.09,0.04636
5784.31,0.04547
5778.52,0.04580
5772.73,0.04711
5766.95,0.04805
5761.16,0.04718
5755.38,0.04696
5749.59,0.04681
5743.8,0.04719
5738.02,0.04662
5732.23,0.04752
5726.44,0.04722
5720.66,0.04752
5714.87,0.04769
5709.09,0.04707
5703.3,0.04580
5697.51,0.04940
5691.73,0.04827
5685.94,0.04764
5680.15,0.04642
5674.37,0.04883
5668.58,0.04795
5662.8,0.04377
5657.01,0.04602
5651.22,0.04661
5645.44,0.04512
5639.65,0.04678
5633.87,0.04809
5628.08,0.04774
5622.29,0.04767
5616.51,0.04583
5610.72,0.04828
5604.93,0.04788
5599.15,0.04706
5593.36,0.04714
5587.58,0.04790
5581.79,0.04761
5576,0.04783
5570.22,0.04809
5564.43,0.04956
5558.64,0.04707
5552.86,0.04885
5547.07,0.04829
5541.29,0.04799
5535.5,0.04707
5529.71,0.04650
5523.93,0.04716
5518.14,0.04841
5512.35,0.04708
5506.57,0.04818
5500.78,0.04736
5495,0.04868
5489.21,0.04759
5483.42,0.04804
5477.64,0.04806
5471.85,0.04656
5466.06,0.04832
5460.28,0.04615
5454.49,0.04803
5448.71,0.04781
5442.92,0.04769
5437.13,0.04680
5431.35,0.04826
5425.56,0.04802
5419.77,0.04798
5413.99,0.04883
5408.2,0.04773
5402.42,0.04774
5396.63,0.04739
5390.84,0.04775
5385.06,0.04771
5379.27,0.04844
5373.48,0.04760
5367.7,0.04729
5361.91,0.04805
5356.13,0.04797
5350.34,0.04760
5344.55,0.04801
5338.77,0.04933
5332.98,0.04849
5327.19,0.04863
5321.41,0.04801
5315.62,0.04812
5309.84,0.04963
5304.05,0.04961
5298.26,0.04751
5292.48,0.04758
5286.69,0.04794
5280.9,0.04775
5275.12,0.04828
5269.33,0.04818
5263.55,0.04939
5257.76,0.04854
5251.97,0.05034
5246.19,0.04833
5240.4,0.04903
5234.61,0.04758
5228.83,0.04970
5223.04,0.04865
5217.26,0.04861
5211.47,0.04827
5205.68,0.04645
5199.9,0.04882
5194.11,0.04955
5188.32,0.04922
5182.54,0.04988
5176.75,0.04757
5170.97,0.04766
5165.18,0.04821
5159.39,0.04870
5153.61,0.04841
5147.82,0.04931
5142.03,0.04728
5136.25,0.04745
5130.46,0.04830
5124.68,0.04768
5118.89,0.04878
5113.1,0.04931
5107.32,0.04867
5101.53,0.04931
5095.75,0.04851
5089.96,0.05011
5084.17,0.04984
5078.39,0.04917
5072.6,0.04930
5066.81,0.04921
5061.03,0.04868
5055.24,0.04839
5049.46,0.04757
5043.67,0.05039
5037.88,0.05000
5032.1,0.04906
5026.31,0.04838
5020.52,0.04927
5014.74,0.04843
5008.95,0.04886
5003.17,0.04875
4997.38,0.04951
4991.59,0.04919
4985.81,0.04877
4980.02,0.04920
4974.23,0.04897
4968.45,0.04942
4962.66,0.04751
4956.88,0.04918
4951.09,0.04818
4945.3,0.04925
4939.52,0.04922
4933.73,0.04949
4927.94,0.04895
4922.16,0.04829
4916.37,0.04952
4910.59,0.04883
4904.8,0.04952
4899.01,0.04927
4893.23,0.04807
4887.44,0.04873
4881.65,0.04858
4875.87,0.04922
4870.08,0.04888
4864.3,0.05032
4858.51,0.05031
4852.72,0.05006
4846.94,0.04879
4841.15,0.04940
4835.36,0.04976
4829.58,0.04934
4823.79,0.05129
4818.01,0.04970
4812.22,0.04979
4806.43,0.05072
4800.65,0.04964
4794.86,0.04963
4789.07,0.04987
4783.29,0.04952
4777.5,0.05031
4771.72,0.05038
4765.93,0.04968
4760.14,0.05039
4754.36,0.04967
4748.57,0.04989
4742.78,0.05027
4737,0.05062
4731.21,0.04980
4725.43,0.05033
4719.64,0.05000
4713.85,0.05071
4708.07,0.05018
4702.28,0.05109
4696.49,0.05008
4690.71,0.05072
4684.92,0.05051
4679.14,0.05134
4673.35,0.05120
4667.56,0.05117
4661.78,0.04955
4655.99,0.04966
4650.2,0.05034
4644.42,0.05131
4638.63,0.05022
4632.85,0.05025
4627.06,0.05063
4621.27,0.04989
4615.49,0.05001
4609.7,0.05052
4603.92,0.04994
4598.13,0.05036
4592.34,0.05065
4586.56,0.04887
4580.77,0.05056
4574.98,0.05024
4569.2,0.05033
4563.41,0.05070
4557.63,0.05184
4551.84,0.05048
4546.05,0.05003
4540.27,0.05151
4534.48,0.05064
4528.69,0.05028
4522.91,0.05076
4517.12,0.05065
4511.34,0.05092
4505.55,0.05000
4499.76,0.05003
4493.98,0.04993
4488.19,0.05041
4482.4,0.05079
4476.62,0.05079
4470.83,0.05128
4465.05,0.05151
4459.26,0.05120
4453.47,0.05083
4447.69,0.05109
4441.9,0.05142
4436.11,0.05201
4430.33,0.05104
4424.54,0.05103
4418.76,0.05097
4412.97,0.05087
4407.18,0.04984
4401.4,0.05028
4395.61,0.05112
4389.82,0.05084
4384.04,0.05083
4378.25,0.05100
4372.47,0.05076
4366.68,0.05136
4360.89,0.05038
4355.11,0.05086
4349.32,0.05081
4343.53,0.05158
4337.75,0.05076
4331.96,0.05071
4326.18,0.05071
4320.39,0.05088
4314.6,0.05120
4308.82,0.05067
4303.03,0.05125
4297.24,0.05204
4291.46,0.05023
4285.67,0.05047
4279.89,0.05193
4274.1,0.05166
4268.31,0.05130
4262.53,0.05107
4256.74,0.05115
4250.95,0.05155
4245.17,0.05064
4239.38,0.05217
4233.6,0.05114
4227.81,0.05127
4222.02,0.05152
4216.24,0.05180
4210.45,0.05160
4204.66,0.05126
4198.88,0.05188
4193.09,0.05166
4187.31,0.05121
4181.52,0.05223
4175.73,0.05215
4169.95,0.05220
4164.16,0.05195
4158.37,0.05206
4152.59,0.05223
4146.8,0.05195
4141.02,0.05210
4135.23,0.05225
4129.44,0.05217
4123.66,0.05176
4117.87,0.05175
4112.09,0.05192
4106.3,0.05213
4100.51,0.05198
4094.73,0.05163
4088.94,0.05256
4083.15,0.05255
4077.37,0.05201
4071.58,0.05252
4065.8,0.05253
4060.01,0.05246
4054.22,0.05239
4048.44,0.05241
4042.65,0.05218
4036.86,0.05275
4031.08,0.05252
4025.29,0.05261
4019.51,0.05228
4013.72,0.05241
4007.93,0.05201
4002.15,0.05281
3996.36,0.05277
3990.57,0.05204
3984.79,0.05283
3979,0.05267
3973.22,0.05217
3967.43,0.05266
3961.64,0.05264
3955.86,0.05255
3950.07,0.05273
3944.28,0.05274
3938.5,0.05253
3932.71,0.05262
3926.93,0.05302
3921.14,0.05336
3915.35,0.05323
3909.57,0.05278
3903.78,0.05355
3897.99,0.05363
3892.21,0.05312
3886.42,0.05305
3880.64,0.05341
3874.85,0.05319
3869.06,0.05303
3863.28,0.05332
3857.49,0.05326
3851.7,0.05354
3845.92,0.05334
3840.13,0.05340
3834.35,0.05423
3828.56,0.05307
3822.77,0.05314
3816.99,0.05303
3811.2,0.05324
3805.41,0.05332
3799.63,0.05341
3793.84,0.05349
3788.06,0.05350
3782.27,0.05353
3776.48,0.05281
3770.7,0.05309
3764.91,0.05399
3759.12,0.05419
3753.34,0.05442
3747.55,0.05416
3741.77,0.05371
3735.98,0.05410
3730.19,0.05376
3724.41,0.05341
3718.62,0.05390
3712.83,0.05394
3707.05,0.05370
3701.26,0.05283
3695.48,0.05240
3689.69,0.05270
3683.9,0.05291
3678.12,0.05329
3672.33,0.05308
3666.54,0.05310
3660.76,0.05281
3654.97,0.05291
3649.19,0.05038
3643.4,0.05127
3637.61,0.05232
3631.83,0.05143
3626.04,0.04908
3620.25,0.04811
3614.47,0.04971
3608.68,0.05038
3602.9,0.05124
3597.11,0.05165
3591.32,0.05159
3585.54,0.05152
3579.75,0.05077
3573.97,0.05070
3568.18,0.05095
3562.39,0.05080
3556.61,0.05081
3550.82,0.04926
3545.03,0.04883
3539.25,0.04851
3533.46,0.04622
3527.68,0.04298
3521.89,0.04327
3516.1,0.04336
3510.32,0.04392
3504.53,0.04521
3498.74,0.04593
3492.96,0.04578
3487.17,0.04465
3481.39,0.04493
3475.6,0.04447
3469.81,0.04345
3464.03,0.04260
3458.24,0.04217
3452.45,0.04164
3446.67,0.04152
3440.88,0.04143
3435.1,0.04110
3429.31,0.04090
3423.52,0.04029
3417.74,0.03988
3411.95,0.04069
3406.16,0.03990
3400.38,0.03945
3394.59,0.03940
3388.81,0.04009
3383.02,0.04060
3377.23,0.04085
3371.45,0.04220
3365.66,0.04236
3359.87,0.04297
3354.09,0.04323
3348.3,0.04385
3342.52,0.04328
3336.73,0.04313
3330.94,0.04349
3325.16,0.04331
3319.37,0.04285
3313.58,0.04231
3307.8,0.04336
3302.01,0.04378
3296.23,0.04336
3290.44,0.04276
3284.65,0.04392
3278.87,0.04390
3273.08,0.04401
3267.29,0.04496
3261.51,0.04445
3255.72,0.04372
3249.94,0.04392
3244.15,0.04432
3238.36,0.04333
3232.58,0.04318
3226.79,0.04233
3221,0.04309
3215.22,0.04222
3209.43,0.04215
3203.65,0.04169
3197.86,0.04193
3192.07,0.04285
3186.29,0.04374
3180.5,0.04479
3174.71,0.04493
3168.93,0.04537
3163.14,0.04474
3157.36,0.04527
3151.57,0.04622
3145.78,0.04539
3140,0.04571
3134.21,0.04562
3128.42,0.04504
3122.64,0.04565
3116.85,0.04575
3111.07,0.04665
3105.28,0.04673
3099.49,0.04617
3093.71,0.04666
3087.92,0.04625
3082.14,0.04606
3076.35,0.04642
3070.56,0.04591
3064.78,0.04618
3058.99,0.04625
3053.2,0.04638
3047.42,0.04648
3041.63,0.04709
3035.85,0.04707
3030.06,0.04664
3024.27,0.04706
3018.49,0.04665
3012.7,0.04657
3006.91,0.04689
3001.13,0.04633
2995.34,0.04635
2989.56,0.04580
2983.77,0.04511
2977.98,0.04447
2972.2,0.04460
2966.41,0.04317
2960.62,0.04203
2954.84,0.04209
2949.05,0.04112
2943.27,0.04107
2937.48,0.04094
2931.69,0.04150
2925.91,0.04306
2920.12,0.04591
2914.33,0.04851
2908.55,0.04578
2902.76,0.04586
2896.98,0.04603
2891.19,0.04694
2885.4,0.04766
2879.62,0.04737
2873.83,0.04697
2868.04,0.04716
2862.26,0.04633
2856.47,0.04603
2850.69,0.04879
2844.9,0.04986
2839.11,0.05016
2833.33,0.05130
2827.54,0.05223
2821.75,0.05242
2815.97,0.05292
2810.18,0.05353
2804.4,0.05348
2798.61,0.05363
2792.82,0.05379
2787.04,0.05416
2781.25,0.05418
2775.46,0.05410
2769.68,0.05438
2763.89,0.05482
2758.11,0.05477
2752.32,0.05484
2746.53,0.05501
2740.75,0.05529
2734.96,0.05524
2729.17,0.05552
2723.39,0.05576
2717.6,0.05562
2711.82,0.05568
2706.03,0.05579
2700.24,0.05559
2694.46,0.05623
2688.67,0.05608
2682.88,0.05640
2677.1,0.05674
2671.31,0.05670
2665.53,0.05658
2659.74,0.05639
2653.95,0.05638
2648.17,0.05666
2642.38,0.05664
2636.59,0.05700
2630.81,0.05683
2625.02,0.05651
2619.24,0.05657
2613.45,0.05663
2607.66,0.05671
2601.88,0.05678
2596.09,0.05685
2590.3,0.05664
2584.52,0.05661
2578.73,0.05652
2572.95,0.05687
2567.16,0.05716
2561.37,0.05671
2555.59,0.05694
2549.8,0.05714
2544.02,0.05698
2538.23,0.05716
2532.44,0.05709
2526.66,0.05671
2520.87,0.05641
2515.08,0.05654
2509.3,0.05676
2503.51,0.05752
2497.73,0.05785
2491.94,0.05772
2486.15,0.05821
2480.37,0.05890
2474.58,0.05883
2468.79,0.05870
2463.01,0.05912
2457.22,0.05923
2451.44,0.05935
2445.65,0.05940
2439.86,0.05942
2434.08,0.05979
2428.29,0.05977
2422.5,0.05949
2416.72,0.05981
2410.93,0.05958
2405.15,0.05949
2399.36,0.05968
2393.57,0.05988
2387.79,0.05995
2382,0.06032
2376.21,0.06035
2370.43,0.06065
2364.64,0.06089
2358.86,0.06055
2353.07,0.06048
2347.28,0.06090
2341.5,0.06072
2335.71,0.06066
2329.92,0.06055
2324.14,0.06069
2318.35,0.06050
2312.57,0.06083
2306.78,0.06058
2300.99,0.06056
2295.21,0.06019
2289.42,0.06079
2283.63,0.06039
2277.85,0.06025
2272.06,0.06049
2266.28,0.06070
2260.49,0.06067
2254.7,0.06033
2248.92,0.05966
2243.13,0.05946
2237.34,0.05870
2231.56,0.05958
2225.77,0.06043
2219.99,0.06051
2214.2,0.06078
2208.41,0.06056
2202.63,0.06039
2196.84,0.06088
2191.05,0.06065
2185.27,0.06148
2179.48,0.06120
2173.7,0.06124
2167.91,0.06115
2162.12,0.06162
2156.34,0.06174
2150.55,0.06158
2144.76,0.06161
2138.98,0.06153
2133.19,0.06169
2127.41,0.06147
2121.62,0.06187
2115.83,0.06164
2110.05,0.06145
2104.26,0.06168
2098.47,0.06182
2092.69,0.06185
2086.9,0.06155
2081.12,0.06190
2075.33,0.06144
2069.54,0.06185
2063.76,0.06216
2057.97,0.06185
2052.19,0.06164
2046.4,0.06215
2040.61,0.06195
2034.83,0.06215
2029.04,0.06224
2023.25,0.06260
2017.47,0.06189
2011.68,0.06173
2005.9,0.06203
2000.11,0.06223
1994.32,0.06254
1988.54,0.06204
1982.75,0.06188
1976.96,0.06228
1971.18,0.06203
1965.39,0.06206
1959.61,0.06247
1953.82,0.06261
1948.03,0.06240
1942.25,0.06249
1936.46,0.06217
1930.67,0.06228
1924.89,0.06271
1919.1,0.06231
1913.32,0.06252
1907.53,0.06259
1901.74,0.06253
1895.96,0.06215
1890.17,0.06220
1884.38,0.06211
1878.6,0.06229
1872.81,0.06153
1867.03,0.06162
1861.24,0.06148
1855.45,0.06126
1849.67,0.06120
1843.88,0.06118
1838.09,0.06070
1832.31,0.06060
1826.52,0.06028
1820.74,0.06003
1814.95,0.05974
1809.16,0.05965
1803.38,0.05855
1797.59,0.05715
1791.8,0.05737
1786.02,0.05789
1780.23,0.05784
1774.45,0.05790
1768.66,0.05755
1762.87,0.05663
1757.09,0.05455
1751.3,0.05279
1745.51,0.04974
1739.73,0.04691
1733.94,0.04459
1728.16,0.04289
1722.37,0.04152
1716.58,0.04048
1710.8,0.04001
1705.01,0.03926
1699.22,0.03781
1693.44,0.03765
1687.65,0.04029
1681.87,0.04330
1676.08,0.04516
1670.29,0.04510
1664.51,0.04477
1658.72,0.04649
1652.93,0.04852
1647.15,0.04850
1641.36,0.04813
1635.58,0.04812
1629.79,0.04706
1624,0.04603
1618.22,0.04534
1612.43,0.04406
1606.64,0.04159
1600.86,0.04211
1595.07,0.04469
1589.29,0.04598
1583.5,0.04757
1577.71,0.04817
1571.93,0.04833
1566.14,0.04752
1560.35,0.04680
1554.57,0.04425
1548.78,0.04241
1543,0.04241
1537.21,0.04260
1531.42,0.04298
1525.64,0.04219
1519.85,0.04117
1514.07,0.04063
1508.28,0.04191
1502.49,0.04424
1496.71,0.04477
1490.92,0.04429
1485.13,0.04472
1479.35,0.04716
1473.56,0.04913
1467.78,0.04696
1461.99,0.04657
1456.2,0.04555
1450.42,0.04474
1444.63,0.04647
1438.84,0.04985
1433.06,0.05057
1427.27,0.05184
1421.49,0.05475
1415.7,0.05856
1409.91,0.06026
1404.13,0.05960
1398.34,0.05995
1392.55,0.06089
1386.77,0.06154
1380.98,0.06170
1375.2,0.06209
1369.41,0.06222
1363.62,0.06248
1357.84,0.06320
1352.05,0.06468
1346.26,0.06578
1340.48,0.06609
1334.69,0.06634
1328.91,0.06618
1323.12,0.06575
1317.33,0.06573
1311.55,0.06583
1305.76,0.06593
1299.97,0.06568
1294.19,0.06527
1288.4,0.06498
1282.62,0.06450
1276.83,0.06418
1271.04,0.06320
1265.26,0.06302
1259.47,0.06207
1253.68,0.06162
1247.9,0.06193
1242.11,0.06248
1236.33,0.06268
1230.54,0.06357
1224.75,0.06379
1218.97,0.06471
1213.18,0.06448
1207.39,0.06408
1201.61,0.06327
1195.82,0.06127
1190.04,0.06130
1184.25,0.06261
1178.46,0.06330
1172.68,0.06250
1166.89,0.06149
1161.1,0.06035
1155.32,0.06076
1149.53,0.06117
1143.75,0.06105
1137.96,0.06180
1132.17,0.06182
1126.39,0.05975
1120.6,0.05804
1114.81,0.05723
1109.03,0.05861
1103.24,0.05953
1097.46,0.06095
1091.67,0.06087
1085.88,0.06086
1080.1,0.06161
1074.31,0.06208
1068.52,0.06201
1062.74,0.06170
1056.95,0.06032
1051.17,0.05843
1045.38,0.05706
1039.59,0.05423
1033.81,0.05259
1028.02,0.05179
1022.24,0.05279
1016.45,0.05509
1010.66,0.05785
1004.88,0.06056
999.09,0.06071
993.304,0.06151
987.518,0.06027
981.731,0.05816
975.945,0.05460
970.159,0.05339
964.373,0.05662
958.586,0.06083
952.8,0.06317
947.014,0.06355
941.228,0.06512
935.441,0.06588
929.655,0.06527
923.869,0.06508
918.083,0.06409
912.297,0.06500
906.51,0.06590
900.724,0.06615
894.938,0.06270
889.152,0.06037
883.365,0.05786
877.579,0.05617
871.793,0.05581
866.007,0.06180
860.22,0.06225
854.434,0.05974
848.648,0.06086
842.862,0.06100
837.075,0.06104
831.289,0.05963
825.503,0.05984
819.717,0.05784
813.931,0.05585
808.144,0.05362
802.358,0.05226
796.572,0.05267
790.786,0.05362
784.999,0.05452
779.213,0.05525
773.427,0.05584
767.641,0.05533
761.854,0.05587
756.068,0.05394
750.282,0.05354
744.496,0.05392
738.709,0.05485
732.923,0.05533
727.137,0.05612
721.351,0.05738
715.565,0.05421
709.778,0.05581
703.992,0.05498
698.206,0.05375
692.42,0.05480
686.633,0.05358
680.847,0.05253
675.061,0.05067
669.275,0.05071
663.488,0.05188
657.702,0.05264
651.916,0.05203
646.13,0.05202
640.343,0.04848
634.557,0.04909
628.771,0.04795
622.985,0.04772
617.198,0.04643
611.412,0.04750
605.626,0.04761
599.84,0.04588