File: 01_Data/Rubber_Foam_Pipe_Insulation/FTIR/IS/Rubber_Foam_Pipe_Insulation_IS_S_220825_R8.dpt
7497.03,0.04858
7491.25,0.04631
7485.46,0.04988
7479.67,0.04602
7473.89,0.04376
7468.1,0.05189
7462.32,0.04873
7456.53,0.04409
7450.74,0.04177
7444.96,0.05352
7439.17,0.05372
7433.38,0.04540
7427.6,0.05423
7421.81,0.04688
7416.03,0.04772
7410.24,0.04474
7404.45,0.04894
7398.67,0.04415
7392.88,0.05256
7387.09,0.04574
7381.31,0.04714
7375.52,0.05427
7369.74,0.04682
7363.95,0.04572
7358.16,0.04938
7352.38,0.04260
7346.59,0.04889
7340.8,0.04436
7335.02,0.05091
7329.23,0.04877
7323.45,0.05467
7317.66,0.05016
7311.87,0.04737
7306.09,0.05012
7300.3,0.04334
7294.51,0.05151
7288.73,0.05540
7282.94,0.05137
7277.16,0.04986
7271.37,0.04433
7265.58,0.05053
7259.8,0.04624
7254.01,0.03917
7248.22,0.04522
7242.44,0.05046
7236.65,0.04227
7230.87,0.04423
7225.08,0.04650
7219.29,0.04504
7213.51,0.05258
7207.72,0.05086
7201.93,0.04172
7196.15,0.04851
7190.36,0.04449
7184.58,0.04740
7178.79,0.05496
7173,0.04619
7167.22,0.04396
7161.43,0.04939
7155.65,0.05461
7149.86,0.05140
7144.07,0.05228
7138.29,0.05036
7132.5,0.05199
7126.71,0.04484
7120.93,0.04672
7115.14,0.04523
7109.36,0.04677
7103.57,0.04885
7097.78,0.05048
7092,0.04576
7086.21,0.04618
7080.42,0.04513
7074.64,0.04332
7068.85,0.04361
7063.07,0.05003
7057.28,0.04836
7051.49,0.04779
7045.71,0.04533
7039.92,0.04465
7034.13,0.04183
7028.35,0.04805
7022.56,0.04840
7016.78,0.04095
7010.99,0.04380
7005.2,0.04969
6999.42,0.04805
6993.63,0.05204
6987.84,0.05158
6982.06,0.04359
6976.27,0.04502
6970.49,0.04889
6964.7,0.04562
6958.91,0.05045
6953.13,0.04569
6947.34,0.04205
6941.55,0.04821
6935.77,0.04151
6929.98,0.04538
6924.2,0.04925
6918.41,0.04755
6912.62,0.05399
6906.84,0.04473
6901.05,0.04556
6895.26,0.05049
6889.48,0.04968
6883.69,0.04859
6877.91,0.04866
6872.12,0.04467
6866.33,0.04854
6860.55,0.05063
6854.76,0.04607
6848.97,0.04764
6843.19,0.04440
6837.4,0.04559
6831.62,0.04603
6825.83,0.04615
6820.04,0.04263
6814.26,0.04455
6808.47,0.04456
6802.68,0.03784
6796.9,0.04483
6791.11,0.04418
6785.33,0.04802
6779.54,0.04145
6773.75,0.05000
6767.97,0.04692
6762.18,0.04820
6756.39,0.04750
6750.61,0.04487
6744.82,0.04878
6739.04,0.04811
6733.25,0.04787
6727.46,0.04317
6721.68,0.04770
6715.89,0.04846
6710.1,0.04713
6704.32,0.04677
6698.53,0.04397
6692.75,0.04618
6686.96,0.04527
6681.17,0.04395
6675.39,0.04391
6669.6,0.04564
6663.82,0.04488
6658.03,0.04392
6652.24,0.04765
6646.46,0.04770
6640.67,0.04555
6634.88,0.04405
6629.1,0.04165
6623.31,0.04236
6617.53,0.04619
6611.74,0.04233
6605.95,0.04709
6600.17,0.04892
6594.38,0.04900
6588.59,0.04552
6582.81,0.04533
6577.02,0.04471
6571.24,0.04511
6565.45,0.04562
6559.66,0.04337
6553.88,0.04299
6548.09,0.04644
6542.3,0.04776
6536.52,0.04520
6530.73,0.04348
6524.95,0.04292
6519.16,0.04501
6513.37,0.04684
6507.59,0.04011
6501.8,0.04757
6496.01,0.04507
6490.23,0.04472
6484.44,0.04672
6478.66,0.04397
6472.87,0.04636
6467.08,0.04694
6461.3,0.04901
6455.51,0.04873
6449.72,0.04464
6443.94,0.04329
6438.15,0.05005
6432.37,0.04539
6426.58,0.04394
6420.79,0.04371
6415.01,0.04830
6409.22,0.04704
6403.43,0.04449
6397.65,0.04926
6391.86,0.04513
6386.08,0.04970
6380.29,0.04398
6374.5,0.04748
6368.72,0.04881
6362.93,0.04799
6357.14,0.04524
6351.36,0.04675
6345.57,0.04648
6339.79,0.04843
6334,0.04866
6328.21,0.04594
6322.43,0.04297
6316.64,0.04751
6310.85,0.04610
6305.07,0.04550
6299.28,0.04659
6293.5,0.04739
6287.71,0.04617
6281.92,0.04727
6276.14,0.04516
6270.35,0.04650
6264.56,0.04570
6258.78,0.04756
6252.99,0.04747
6247.21,0.04570
6241.42,0.04564
6235.63,0.04598
6229.85,0.04544
6224.06,0.04659
6218.27,0.04453
6212.49,0.04541
6206.7,0.04613
6200.92,0.04261
6195.13,0.04529
6189.34,0.05072
6183.56,0.04595
6177.77,0.04560
6171.98,0.04612
6166.2,0.04372
6160.41,0.04680
6154.63,0.04710
6148.84,0.04502
6143.05,0.04451
6137.27,0.04595
6131.48,0.04511
6125.7,0.04725
6119.91,0.04712
6114.12,0.04645
6108.34,0.04496
6102.55,0.04485
6096.76,0.04702
6090.98,0.04830
6085.19,0.04349
6079.41,0.04550
6073.62,0.04659
6067.83,0.04659
6062.05,0.04512
6056.26,0.04668
6050.47,0.04601
6044.69,0.04623
6038.9,0.04477
6033.12,0.04427
6027.33,0.04554
6021.54,0.04709
6015.76,0.04782
6009.97,0.04723
6004.18,0.04759
5998.4,0.04705
5992.61,0.04566
5986.83,0.04574
5981.04,0.04442
5975.25,0.04487
5969.47,0.04619
5963.68,0.04612
5957.89,0.04513
5952.11,0.04571
5946.32,0.04672
5940.54,0.04374
5934.75,0.04877
5928.96,0.04668
5923.18,0.04526
5917.39,0.04556
5911.6,0.04557
5905.82,0.04661
5900.03,0.04684
5894.25,0.04705
5888.46,0.04582
5882.67,0.04451
5876.89,0.04745
5871.1,0.04536
5865.31,0.04556
5859.53,0.04754
5853.74,0.04650
5847.96,0.04572
5842.17,0.04601
5836.38,0.04618
5830.6,0.04548
5824.81,0.04489
5819.02,0.04621
5813.24,0.04636
5807.45,0.04507
5801.67,0.04644
5795.88,0.04717
5790.09,0.04547
5784.31,0.04700
5778.52,0.04562
5772.73,0.04539
5766.95,0.04746
5761.16,0.04769
5755.38,0.04709
5749.59,0.04614
5743.8,0.04696
5738.02,0.04619
5732.23,0.04691
5726.44,0.04542
5720.66,0.04522
5714.87,0.04784
5709.09,0.04797
5703.3,0.04691
5697.51,0.04604
5691.73,0.04432
5685.94,0.04652
5680.15,0.04772
5674.37,0.04779
5668.58,0.04538
5662.8,0.04785
5657.01,0.04629
5651.22,0.05016
5645.44,0.04683
5639.65,0.04738
5633.87,0.04593
5628.08,0.04690
5622.29,0.04701
5616.51,0.04757
5610.72,0.04870
5604.93,0.04568
5599.15,0.04762
5593.36,0.04794
5587.58,0.04793
5581.79,0.04620
5576,0.04752
5570.22,0.04663
5564.43,0.04799
5558.64,0.04680
5552.86,0.05010
5547.07,0.04887
5541.29,0.04712
5535.5,0.04928
5529.71,0.04766
5523.93,0.04729
5518.14,0.04781
5512.35,0.04707
5506.57,0.04743
5500.78,0.04948
5495,0.04753
5489.21,0.04717
5483.42,0.04620
5477.64,0.04758
5471.85,0.04731
5466.06,0.04572
5460.28,0.04747
5454.49,0.04839
5448.71,0.04848
5442.92,0.04680
5437.13,0.04779
5431.35,0.04769
5425.56,0.04850
5419.77,0.04811
5413.99,0.04724
5408.2,0.04729
5402.42,0.04828
5396.63,0.04793
5390.84,0.04824
5385.06,0.04709
5379.27,0.04625
5373.48,0.04722
5367.7,0.04762
5361.91,0.04879
5356.13,0.04911
5350.34,0.04792
5344.55,0.04835
5338.77,0.04876
5332.98,0.04870
5327.19,0.04693
5321.41,0.04731
5315.62,0.04802
5309.84,0.04758
5304.05,0.04884
5298.26,0.04750
5292.48,0.04823
5286.69,0.04932
5280.9,0.04931
5275.12,0.04889
5269.33,0.04829
5263.55,0.04788
5257.76,0.05000
5251.97,0.04852
5246.19,0.04728
5240.4,0.04660
5234.61,0.04819
5228.83,0.04818
5223.04,0.04830
5217.26,0.04833
5211.47,0.04831
5205.68,0.04889
5199.9,0.04694
5194.11,0.04847
5188.32,0.04868
5182.54,0.04874
5176.75,0.04927
5170.97,0.05018
5165.18,0.04778
5159.39,0.04920
5153.61,0.04872
5147.82,0.04901
5142.03,0.04966
5136.25,0.04800
5130.46,0.04841
5124.68,0.04817
5118.89,0.04833
5113.1,0.04739
5107.32,0.04874
5101.53,0.04878
5095.75,0.04873
5089.96,0.04858
5084.17,0.04767
5078.39,0.04830
5072.6,0.04794
5066.81,0.04860
5061.03,0.04905
5055.24,0.04908
5049.46,0.04835
5043.67,0.04861
5037.88,0.04905
5032.1,0.04994
5026.31,0.04906
5020.52,0.04827
5014.74,0.04812
5008.95,0.04840
5003.17,0.04839
4997.38,0.04886
4991.59,0.04896
4985.81,0.04897
4980.02,0.04914
4974.23,0.04958
4968.45,0.05074
4962.66,0.04905
4956.88,0.04947
4951.09,0.04928
4945.3,0.04837
4939.52,0.04830
4933.73,0.04945
4927.94,0.04895
4922.16,0.04961
4916.37,0.04908
4910.59,0.04929
4904.8,0.04934
4899.01,0.04977
4893.23,0.04891
4887.44,0.04974
4881.65,0.04941
4875.87,0.04941
4870.08,0.04932
4864.3,0.05052
4858.51,0.04894
4852.72,0.04919
4846.94,0.04986
4841.15,0.04868
4835.36,0.04913
4829.58,0.04891
4823.79,0.04961
4818.01,0.04873
4812.22,0.05001
4806.43,0.04986
4800.65,0.04929
4794.86,0.04945
4789.07,0.04975
4783.29,0.04900
4777.5,0.05013
4771.72,0.04972
4765.93,0.04960
4760.14,0.04930
4754.36,0.04950
4748.57,0.05061
4742.78,0.05016
4737,0.05016
4731.21,0.05022
4725.43,0.04949
4719.64,0.05007
4713.85,0.04950
4708.07,0.05006
4702.28,0.05034
4696.49,0.05146
4690.71,0.05038
4684.92,0.04972
4679.14,0.05026
4673.35,0.04914
4667.56,0.04963
4661.78,0.04994
4655.99,0.04994
4650.2,0.05036
4644.42,0.05043
4638.63,0.05083
4632.85,0.05063
4627.06,0.04947
4621.27,0.05043
4615.49,0.04935
4609.7,0.04987
4603.92,0.05018
4598.13,0.05054
4592.34,0.05105
4586.56,0.05133
4580.77,0.05084
4574.98,0.05020
4569.2,0.05042
4563.41,0.05037
4557.63,0.04966
4551.84,0.05054
4546.05,0.05011
4540.27,0.05074
4534.48,0.04963
4528.69,0.04996
4522.91,0.05018
4517.12,0.05062
4511.34,0.05003
4505.55,0.05010
4499.76,0.05108
4493.98,0.05019
4488.19,0.05070
4482.4,0.05041
4476.62,0.05069
4470.83,0.05066
4465.05,0.04996
4459.26,0.05089
4453.47,0.05047
4447.69,0.05122
4441.9,0.05071
4436.11,0.05053
4430.33,0.05025
4424.54,0.05080
4418.76,0.05041
4412.97,0.05103
4407.18,0.05050
4401.4,0.05024
4395.61,0.05068
4389.82,0.05161
4384.04,0.05164
4378.25,0.05129
4372.47,0.05077
4366.68,0.05109
4360.89,0.05100
4355.11,0.05092
4349.32,0.05002
4343.53,0.05067
4337.75,0.05100
4331.96,0.05084
4326.18,0.05113
4320.39,0.05102
4314.6,0.05119
4308.82,0.05069
4303.03,0.05080
4297.24,0.05097
4291.46,0.05092
4285.67,0.05042
4279.89,0.05068
4274.1,0.05059
4268.31,0.05039
4262.53,0.05128
4256.74,0.05095
4250.95,0.05097
4245.17,0.05169
4239.38,0.05181
4233.6,0.05219
4227.81,0.05107
4222.02,0.05151
4216.24,0.05166
4210.45,0.05094
4204.66,0.05191
4198.88,0.05205
4193.09,0.05146
4187.31,0.05128
4181.52,0.05179
4175.73,0.05160
4169.95,0.05121
4164.16,0.05130
4158.37,0.05235
4152.59,0.05231
4146.8,0.05176
4141.02,0.05202
4135.23,0.05150
4129.44,0.05223
4123.66,0.05172
4117.87,0.05205
4112.09,0.05122
4106.3,0.05164
4100.51,0.05204
4094.73,0.05179
4088.94,0.05230
4083.15,0.05208
4077.37,0.05267
4071.58,0.05183
4065.8,0.05160
4060.01,0.05185
4054.22,0.05242
4048.44,0.05201
4042.65,0.05196
4036.86,0.05256
4031.08,0.05247
4025.29,0.05189
4019.51,0.05192
4013.72,0.05224
4007.93,0.05239
4002.15,0.05183
3996.36,0.05162
3990.57,0.05255
3984.79,0.05270
3979,0.05237
3973.22,0.05219
3967.43,0.05193
3961.64,0.05268
3955.86,0.05210
3950.07,0.05207
3944.28,0.05235
3938.5,0.05218
3932.71,0.05182
3926.93,0.05223
3921.14,0.05289
3915.35,0.05282
3909.57,0.05218
3903.78,0.05198
3897.99,0.05235
3892.21,0.05328
3886.42,0.05256
3880.64,0.05306
3874.85,0.05267
3869.06,0.05304
3863.28,0.05272
3857.49,0.05280
3851.7,0.05252
3845.92,0.05289
3840.13,0.05313
3834.35,0.05356
3828.56,0.05292
3822.77,0.05231
3816.99,0.05258
3811.2,0.05316
3805.41,0.05225
3799.63,0.05311
3793.84,0.05288
3788.06,0.05270
3782.27,0.05321
3776.48,0.05319
3770.7,0.05383
3764.91,0.05308
3759.12,0.05255
3753.34,0.05298
3747.55,0.05341
3741.77,0.05279
3735.98,0.05353
3730.19,0.05293
3724.41,0.05361
3718.62,0.05268
3712.83,0.05286
3707.05,0.05311
3701.26,0.05285
3695.48,0.05224
3689.69,0.05257
3683.9,0.05297
3678.12,0.05270
3672.33,0.05254
3666.54,0.05216
3660.76,0.05274
3654.97,0.05119
3649.19,0.04867
3643.4,0.05095
3637.61,0.05227
3631.83,0.05154
3626.04,0.04876
3620.25,0.04820
3614.47,0.04924
3608.68,0.05056
3602.9,0.05103
3597.11,0.05115
3591.32,0.05060
3585.54,0.05037
3579.75,0.05034
3573.97,0.05080
3568.18,0.04987
3562.39,0.04950
3556.61,0.04936
3550.82,0.04881
3545.03,0.04820
3539.25,0.04712
3533.46,0.04522
3527.68,0.04252
3521.89,0.04265
3516.1,0.04304
3510.32,0.04372
3504.53,0.04452
3498.74,0.04609
3492.96,0.04532
3487.17,0.04483
3481.39,0.04454
3475.6,0.04312
3469.81,0.04291
3464.03,0.04203
3458.24,0.04249
3452.45,0.04118
3446.67,0.04128
3440.88,0.04076
3435.1,0.04086
3429.31,0.04119
3423.52,0.04057
3417.74,0.03982
3411.95,0.03956
3406.16,0.03941
3400.38,0.03889
3394.59,0.03848
3388.81,0.03960
3383.02,0.04030
3377.23,0.04060
3371.45,0.04108
3365.66,0.04222
3359.87,0.04256
3354.09,0.04238
3348.3,0.04301
3342.52,0.04296
3336.73,0.04309
3330.94,0.04300
3325.16,0.04359
3319.37,0.04220
3313.58,0.04279
3307.8,0.04323
3302.01,0.04364
3296.23,0.04330
3290.44,0.04273
3284.65,0.04267
3278.87,0.04340
3273.08,0.04380
3267.29,0.04444
3261.51,0.04408
3255.72,0.04399
3249.94,0.04508
3244.15,0.04367
3238.36,0.04345
3232.58,0.04269
3226.79,0.04266
3221,0.04216
3215.22,0.04220
3209.43,0.04186
3203.65,0.04178
3197.86,0.04334
3192.07,0.04308
3186.29,0.04384
3180.5,0.04353
3174.71,0.04380
3168.93,0.04489
3163.14,0.04462
3157.36,0.04511
3151.57,0.04490
3145.78,0.04556
3140,0.04594
3134.21,0.04532
3128.42,0.04548
3122.64,0.04566
3116.85,0.04531
3111.07,0.04578
3105.28,0.04639
3099.49,0.04576
3093.71,0.04656
3087.92,0.04628
3082.14,0.04642
3076.35,0.04595
3070.56,0.04632
3064.78,0.04598
3058.99,0.04614
3053.2,0.04630
3047.42,0.04655
3041.63,0.04625
3035.85,0.04597
3030.06,0.04605
3024.27,0.04676
3018.49,0.04643
3012.7,0.04611
3006.91,0.04587
3001.13,0.04635
2995.34,0.04586
2989.56,0.04505
2983.77,0.04464
2977.98,0.04450
2972.2,0.04343
2966.41,0.04299
2960.62,0.04229
2954.84,0.04173
2949.05,0.04123
2943.27,0.04107
2937.48,0.04041
2931.69,0.04109
2925.91,0.04260
2920.12,0.04602
2914.33,0.04844
2908.55,0.04524
2902.76,0.04549
2896.98,0.04600
2891.19,0.04661
2885.4,0.04741
2879.62,0.04773
2873.83,0.04718
2868.04,0.04636
2862.26,0.04601
2856.47,0.04599
2850.69,0.04856
2844.9,0.04947
2839.11,0.04993
2833.33,0.05128
2827.54,0.05205
2821.75,0.05307
2815.97,0.05289
2810.18,0.05276
2804.4,0.05306
2798.61,0.05306
2792.82,0.05328
2787.04,0.05385
2781.25,0.05374
2775.46,0.05407
2769.68,0.05407
2763.89,0.05379
2758.11,0.05414
2752.32,0.05400
2746.53,0.05454
2740.75,0.05431
2734.96,0.05498
2729.17,0.05511
2723.39,0.05485
2717.6,0.05561
2711.82,0.05539
2706.03,0.05555
2700.24,0.05607
2694.46,0.05587
2688.67,0.05586
2682.88,0.05547
2677.1,0.05606
2671.31,0.05619
2665.53,0.05612
2659.74,0.05623
2653.95,0.05626
2648.17,0.05613
2642.38,0.05622
2636.59,0.05636
2630.81,0.05622
2625.02,0.05602
2619.24,0.05620
2613.45,0.05626
2607.66,0.05626
2601.88,0.05603
2596.09,0.05617
2590.3,0.05630
2584.52,0.05650
2578.73,0.05640
2572.95,0.05647
2567.16,0.05642
2561.37,0.05657
2555.59,0.05668
2549.8,0.05645
2544.02,0.05696
2538.23,0.05665
2532.44,0.05644
2526.66,0.05634
2520.87,0.05647
2515.08,0.05588
2509.3,0.05606
2503.51,0.05693
2497.73,0.05732
2491.94,0.05776
2486.15,0.05788
2480.37,0.05818
2474.58,0.05836
2468.79,0.05885
2463.01,0.05873
2457.22,0.05862
2451.44,0.05917
2445.65,0.05894
2439.86,0.05913
2434.08,0.05922
2428.29,0.05922
2422.5,0.05899
2416.72,0.05904
2410.93,0.05889
2405.15,0.05964
2399.36,0.05939
2393.57,0.05915
2387.79,0.05948
2382,0.05971
2376.21,0.05944
2370.43,0.05949
2364.64,0.05925
2358.86,0.05921
2353.07,0.05951
2347.28,0.05915
2341.5,0.05929
2335.71,0.05902
2329.92,0.05946
2324.14,0.05982
2318.35,0.05978
2312.57,0.05974
2306.78,0.05978
2300.99,0.06027
2295.21,0.05995
2289.42,0.06026
2283.63,0.06046
2277.85,0.06075
2272.06,0.06019
2266.28,0.06021
2260.49,0.05999
2254.7,0.06014
2248.92,0.05960
2243.13,0.05920
2237.34,0.05809
2231.56,0.05894
2225.77,0.05970
2219.99,0.05997
2214.2,0.05986
2208.41,0.06026
2202.63,0.06054
2196.84,0.06066
2191.05,0.06040
2185.27,0.06060
2179.48,0.06084
2173.7,0.06078
2167.91,0.06103
2162.12,0.06087
2156.34,0.06113
2150.55,0.06081
2144.76,0.06095
2138.98,0.06122
2133.19,0.06134
2127.41,0.06156
2121.62,0.06085
2115.83,0.06125
2110.05,0.06135
2104.26,0.06118
2098.47,0.06129
2092.69,0.06137
2086.9,0.06137
2081.12,0.06146
2075.33,0.06110
2069.54,0.06144
2063.76,0.06139
2057.97,0.06164
2052.19,0.06150
2046.4,0.06141
2040.61,0.06150
2034.83,0.06156
2029.04,0.06175
2023.25,0.06164
2017.47,0.06180
2011.68,0.06188
2005.9,0.06136
2000.11,0.06147
1994.32,0.06206
1988.54,0.06184
1982.75,0.06184
1976.96,0.06149
1971.18,0.06178
1965.39,0.06196
1959.61,0.06183
1953.82,0.06192
1948.03,0.06194
1942.25,0.06237
1936.46,0.06203
1930.67,0.06202
1924.89,0.06189
1919.1,0.06218
1913.32,0.06242
1907.53,0.06195
1901.74,0.06206
1895.96,0.06170
1890.17,0.06204
1884.38,0.06181
1878.6,0.06167
1872.81,0.06157
1867.03,0.06112
1861.24,0.06082
1855.45,0.06111
1849.67,0.06104
1843.88,0.06050
1838.09,0.06049
1832.31,0.05985
1826.52,0.05958
1820.74,0.05946
1814.95,0.05953
1809.16,0.05918
1803.38,0.05816
1797.59,0.05646
1791.8,0.05666
1786.02,0.05771
1780.23,0.05771
1774.45,0.05734
1768.66,0.05685
1762.87,0.05571
1757.09,0.05393
1751.3,0.05232
1745.51,0.04942
1739.73,0.04659
1733.94,0.04386
1728.16,0.04224
1722.37,0.04099
1716.58,0.03962
1710.8,0.03934
1705.01,0.03859
1699.22,0.03741
1693.44,0.03738
1687.65,0.03974
1681.87,0.04274
1676.08,0.04412
1670.29,0.04452
1664.51,0.04406
1658.72,0.04592
1652.93,0.04732
1647.15,0.04804
1641.36,0.04758
1635.58,0.04687
1629.79,0.04685
1624,0.04619
1618.22,0.04497
1612.43,0.04357
1606.64,0.04131
1600.86,0.04156
1595.07,0.04434
1589.29,0.04568
1583.5,0.04696
1577.71,0.04779
1571.93,0.04789
1566.14,0.04686
1560.35,0.04553
1554.57,0.04340
1548.78,0.04239
1543,0.04211
1537.21,0.04172
1531.42,0.04207
1525.64,0.04167
1519.85,0.04074
1514.07,0.04011
1508.28,0.04093
1502.49,0.04350
1496.71,0.04381
1490.92,0.04341
1485.13,0.04406
1479.35,0.04703
1473.56,0.04816
1467.78,0.04703
1461.99,0.04610
1456.2,0.04443
1450.42,0.04436
1444.63,0.04596
1438.84,0.04910
1433.06,0.04973
1427.27,0.05121
1421.49,0.05444
1415.7,0.05793
1409.91,0.05944
1404.13,0.05909
1398.34,0.05925
1392.55,0.06057
1386.77,0.06102
1380.98,0.06095
1375.2,0.06155
1369.41,0.06180
1363.62,0.06150
1357.84,0.06294
1352.05,0.06400
1346.26,0.06504
1340.48,0.06541
1334.69,0.06547
1328.91,0.06569
1323.12,0.06560
1317.33,0.06586
1311.55,0.06517
1305.76,0.06526
1299.97,0.06521
1294.19,0.06482
1288.4,0.06474
1282.62,0.06395
1276.83,0.06347
1271.04,0.06329
1265.26,0.06218
1259.47,0.06148
1253.68,0.06104
1247.9,0.06153
1242.11,0.06155
1236.33,0.06240
1230.54,0.06356
1224.75,0.06387
1218.97,0.06449
1213.18,0.06432
1207.39,0.06384
1201.61,0.06221
1195.82,0.06079
1190.04,0.06083
1184.25,0.06215
1178.46,0.06286
1172.68,0.06185
1166.89,0.06111
1161.1,0.05970
1155.32,0.05997
1149.53,0.05999
1143.75,0.06123
1137.96,0.06152
1132.17,0.06041
1126.39,0.05955
1120.6,0.05734
1114.81,0.05725
1109.03,0.05819
1103.24,0.05992
1097.46,0.05996
1091.67,0.06091
1085.88,0.06117
1080.1,0.06133
1074.31,0.06143
1068.52,0.06159
1062.74,0.06176
1056.95,0.06065
1051.17,0.05859
1045.38,0.05663
1039.59,0.05422
1033.81,0.05215
1028.02,0.05169
1022.24,0.05267
1016.45,0.05522
1010.66,0.05834
1004.88,0.05987
999.09,0.06012
993.304,0.06061
987.518,0.06001
981.731,0.05731
975.945,0.05459
970.159,0.05255
964.373,0.05605
958.586,0.06036
952.8,0.06270
947.014,0.06309
941.228,0.06462
935.441,0.06549
929.655,0.06547
923.869,0.06507
918.083,0.06327
912.297,0.06364
906.51,0.06522
900.724,0.06601
894.938,0.06149
889.152,0.05923
883.365,0.05811
877.579,0.05579
871.793,0.05477
866.007,0.06114
860.22,0.06165
854.434,0.05789
848.648,0.05952
842.862,0.06097
837.075,0.06037
831.289,0.05959
825.503,0.05957
819.717,0.05795
813.931,0.05646
808.144,0.05378
802.358,0.05201
796.572,0.05261
790.786,0.05347
784.999,0.05404
779.213,0.05519
773.427,0.05420
767.641,0.05581
761.854,0.05489
756.068,0.05450
750.282,0.05350
744.496,0.05303
738.709,0.05421
732.923,0.05439
727.137,0.05519
721.351,0.05554
715.565,0.05369
709.778,0.05431
703.992,0.05541
698.206,0.05431
692.42,0.05382
686.633,0.05362
680.847,0.05194
675.061,0.05121
669.275,0.05073
663.488,0.05128
657.702,0.05254
651.916,0.05146
646.13,0.05190
640.343,0.04946
634.557,0.04933
628.771,0.04834
622.985,0.04602
617.198,0.04389
611.412,0.04633
605.626,0.04728
599.84,0.04687