File: 01_Data/Rubber_Foam_Pipe_Insulation/FTIR/IS/Rubber_Foam_Pipe_Insulation_IS_S_220825_R7.dpt
7497.03,0.05023
7491.25,0.05136
7485.46,0.04722
7479.67,0.04539
7473.89,0.04654
7468.1,0.04698
7462.32,0.04530
7456.53,0.04564
7450.74,0.04325
7444.96,0.04772
7439.17,0.05162
7433.38,0.05017
7427.6,0.04625
7421.81,0.04269
7416.03,0.04320
7410.24,0.04463
7404.45,0.04431
7398.67,0.05114
7392.88,0.05918
7387.09,0.05830
7381.31,0.04674
7375.52,0.05170
7369.74,0.04693
7363.95,0.03797
7358.16,0.04979
7352.38,0.04816
7346.59,0.04659
7340.8,0.05067
7335.02,0.04331
7329.23,0.04937
7323.45,0.04604
7317.66,0.04795
7311.87,0.04079
7306.09,0.04493
7300.3,0.04389
7294.51,0.04828
7288.73,0.05072
7282.94,0.04735
7277.16,0.04926
7271.37,0.04887
7265.58,0.05389
7259.8,0.04886
7254.01,0.04708
7248.22,0.04379
7242.44,0.04200
7236.65,0.04737
7230.87,0.04434
7225.08,0.04769
7219.29,0.04649
7213.51,0.04305
7207.72,0.04966
7201.93,0.04714
7196.15,0.04939
7190.36,0.05384
7184.58,0.04708
7178.79,0.04790
7173,0.04980
7167.22,0.04882
7161.43,0.05038
7155.65,0.05190
7149.86,0.05057
7144.07,0.05220
7138.29,0.04504
7132.5,0.05288
7126.71,0.05436
7120.93,0.04823
7115.14,0.04522
7109.36,0.04847
7103.57,0.04626
7097.78,0.04423
7092,0.04799
7086.21,0.05153
7080.42,0.04838
7074.64,0.04753
7068.85,0.04966
7063.07,0.04303
7057.28,0.04984
7051.49,0.05156
7045.71,0.05136
7039.92,0.04416
7034.13,0.04359
7028.35,0.04552
7022.56,0.04252
7016.78,0.04707
7010.99,0.04864
7005.2,0.04294
6999.42,0.04734
6993.63,0.04778
6987.84,0.04887
6982.06,0.05014
6976.27,0.04355
6970.49,0.04247
6964.7,0.04829
6958.91,0.04315
6953.13,0.04708
6947.34,0.04344
6941.55,0.04411
6935.77,0.04766
6929.98,0.04409
6924.2,0.04671
6918.41,0.04739
6912.62,0.04175
6906.84,0.04109
6901.05,0.04250
6895.26,0.04682
6889.48,0.04387
6883.69,0.04878
6877.91,0.04870
6872.12,0.04399
6866.33,0.04551
6860.55,0.04655
6854.76,0.04730
6848.97,0.04134
6843.19,0.04602
6837.4,0.04740
6831.62,0.04575
6825.83,0.05160
6820.04,0.04379
6814.26,0.04347
6808.47,0.04402
6802.68,0.04649
6796.9,0.04755
6791.11,0.04353
6785.33,0.04454
6779.54,0.05022
6773.75,0.04371
6767.97,0.04583
6762.18,0.05035
6756.39,0.04571
6750.61,0.04575
6744.82,0.04501
6739.04,0.04334
6733.25,0.04070
6727.46,0.04551
6721.68,0.04586
6715.89,0.04591
6710.1,0.04355
6704.32,0.04412
6698.53,0.04490
6692.75,0.04767
6686.96,0.04613
6681.17,0.04645
6675.39,0.04883
6669.6,0.04659
6663.82,0.04749
6658.03,0.04594
6652.24,0.04477
6646.46,0.04888
6640.67,0.04600
6634.88,0.04809
6629.1,0.04554
6623.31,0.04957
6617.53,0.04902
6611.74,0.04341
6605.95,0.04694
6600.17,0.04958
6594.38,0.04304
6588.59,0.04590
6582.81,0.04146
6577.02,0.04518
6571.24,0.03991
6565.45,0.04576
6559.66,0.04797
6553.88,0.04436
6548.09,0.04501
6542.3,0.04368
6536.52,0.04543
6530.73,0.04773
6524.95,0.04758
6519.16,0.04592
6513.37,0.04566
6507.59,0.04551
6501.8,0.04552
6496.01,0.04442
6490.23,0.04614
6484.44,0.04561
6478.66,0.04671
6472.87,0.04105
6467.08,0.04578
6461.3,0.04706
6455.51,0.04656
6449.72,0.04931
6443.94,0.04885
6438.15,0.04584
6432.37,0.04857
6426.58,0.04577
6420.79,0.05033
6415.01,0.04825
6409.22,0.04535
6403.43,0.04299
6397.65,0.04520
6391.86,0.04892
6386.08,0.04671
6380.29,0.04582
6374.5,0.04451
6368.72,0.04407
6362.93,0.04327
6357.14,0.04844
6351.36,0.04628
6345.57,0.04624
6339.79,0.04502
6334,0.04554
6328.21,0.04768
6322.43,0.04315
6316.64,0.04413
6310.85,0.04376
6305.07,0.04497
6299.28,0.04677
6293.5,0.04429
6287.71,0.04691
6281.92,0.04480
6276.14,0.04640
6270.35,0.04638
6264.56,0.04460
6258.78,0.04688
6252.99,0.04590
6247.21,0.04824
6241.42,0.04682
6235.63,0.04564
6229.85,0.04600
6224.06,0.04826
6218.27,0.04465
6212.49,0.04506
6206.7,0.04750
6200.92,0.04918
6195.13,0.04621
6189.34,0.04707
6183.56,0.04273
6177.77,0.04653
6171.98,0.04685
6166.2,0.04477
6160.41,0.04561
6154.63,0.04753
6148.84,0.04672
6143.05,0.04809
6137.27,0.04572
6131.48,0.04554
6125.7,0.04278
6119.91,0.04403
6114.12,0.04613
6108.34,0.04845
6102.55,0.04722
6096.76,0.04494
6090.98,0.04513
6085.19,0.04520
6079.41,0.04733
6073.62,0.04690
6067.83,0.04706
6062.05,0.04788
6056.26,0.04435
6050.47,0.04572
6044.69,0.04609
6038.9,0.04681
6033.12,0.04608
6027.33,0.04522
6021.54,0.04766
6015.76,0.04644
6009.97,0.04868
6004.18,0.04385
5998.4,0.04578
5992.61,0.04687
5986.83,0.04899
5981.04,0.04728
5975.25,0.04665
5969.47,0.04632
5963.68,0.04673
5957.89,0.04715
5952.11,0.04291
5946.32,0.04560
5940.54,0.04642
5934.75,0.04954
5928.96,0.04763
5923.18,0.04686
5917.39,0.04378
5911.6,0.04622
5905.82,0.04647
5900.03,0.04917
5894.25,0.04501
5888.46,0.04443
5882.67,0.04585
5876.89,0.04763
5871.1,0.04587
5865.31,0.04662
5859.53,0.04721
5853.74,0.04593
5847.96,0.04767
5842.17,0.04563
5836.38,0.04557
5830.6,0.04902
5824.81,0.04795
5819.02,0.04549
5813.24,0.04552
5807.45,0.04736
5801.67,0.04606
5795.88,0.04745
5790.09,0.04602
5784.31,0.04605
5778.52,0.04603
5772.73,0.04779
5766.95,0.04647
5761.16,0.04868
5755.38,0.04860
5749.59,0.04847
5743.8,0.04769
5738.02,0.04789
5732.23,0.04762
5726.44,0.04653
5720.66,0.04736
5714.87,0.04741
5709.09,0.04453
5703.3,0.04754
5697.51,0.04805
5691.73,0.04634
5685.94,0.04791
5680.15,0.04502
5674.37,0.04718
5668.58,0.04763
5662.8,0.04706
5657.01,0.04376
5651.22,0.04653
5645.44,0.04840
5639.65,0.04803
5633.87,0.04754
5628.08,0.04939
5622.29,0.04581
5616.51,0.04861
5610.72,0.04832
5604.93,0.04641
5599.15,0.04639
5593.36,0.04863
5587.58,0.04606
5581.79,0.04811
5576,0.04727
5570.22,0.04637
5564.43,0.04716
5558.64,0.04671
5552.86,0.04714
5547.07,0.04617
5541.29,0.04860
5535.5,0.04585
5529.71,0.04701
5523.93,0.04693
5518.14,0.04747
5512.35,0.04663
5506.57,0.04654
5500.78,0.04775
5495,0.04691
5489.21,0.04660
5483.42,0.04693
5477.64,0.04700
5471.85,0.04796
5466.06,0.04681
5460.28,0.04661
5454.49,0.04892
5448.71,0.04610
5442.92,0.04857
5437.13,0.04783
5431.35,0.04575
5425.56,0.04813
5419.77,0.04873
5413.99,0.04660
5408.2,0.04798
5402.42,0.04701
5396.63,0.04806
5390.84,0.04833
5385.06,0.04789
5379.27,0.04770
5373.48,0.04838
5367.7,0.04747
5361.91,0.04798
5356.13,0.04752
5350.34,0.04625
5344.55,0.04751
5338.77,0.04827
5332.98,0.04698
5327.19,0.04709
5321.41,0.04767
5315.62,0.04922
5309.84,0.04754
5304.05,0.04889
5298.26,0.04805
5292.48,0.04863
5286.69,0.04763
5280.9,0.04715
5275.12,0.04825
5269.33,0.04756
5263.55,0.04804
5257.76,0.04954
5251.97,0.04707
5246.19,0.04734
5240.4,0.04741
5234.61,0.04814
5228.83,0.04806
5223.04,0.04731
5217.26,0.04799
5211.47,0.04878
5205.68,0.04795
5199.9,0.04608
5194.11,0.04823
5188.32,0.04838
5182.54,0.04750
5176.75,0.04822
5170.97,0.04812
5165.18,0.04825
5159.39,0.04879
5153.61,0.04933
5147.82,0.04910
5142.03,0.04769
5136.25,0.04894
5130.46,0.04865
5124.68,0.04991
5118.89,0.04803
5113.1,0.04968
5107.32,0.04991
5101.53,0.04859
5095.75,0.04839
5089.96,0.04950
5084.17,0.04837
5078.39,0.04939
5072.6,0.04798
5066.81,0.04902
5061.03,0.04923
5055.24,0.04832
5049.46,0.04895
5043.67,0.04895
5037.88,0.04946
5032.1,0.04946
5026.31,0.04800
5020.52,0.04892
5014.74,0.04866
5008.95,0.04787
5003.17,0.04922
4997.38,0.04908
4991.59,0.04964
4985.81,0.04825
4980.02,0.04800
4974.23,0.04926
4968.45,0.04890
4962.66,0.04916
4956.88,0.04961
4951.09,0.04939
4945.3,0.04983
4939.52,0.05008
4933.73,0.04888
4927.94,0.04857
4922.16,0.04993
4916.37,0.05014
4910.59,0.04989
4904.8,0.04865
4899.01,0.04930
4893.23,0.04928
4887.44,0.05007
4881.65,0.04965
4875.87,0.04935
4870.08,0.04929
4864.3,0.04922
4858.51,0.04986
4852.72,0.04907
4846.94,0.04931
4841.15,0.04966
4835.36,0.04978
4829.58,0.04930
4823.79,0.04923
4818.01,0.04858
4812.22,0.04965
4806.43,0.04954
4800.65,0.04892
4794.86,0.04919
4789.07,0.04922
4783.29,0.05040
4777.5,0.04964
4771.72,0.04891
4765.93,0.05019
4760.14,0.04927
4754.36,0.04947
4748.57,0.04888
4742.78,0.04926
4737,0.04935
4731.21,0.04988
4725.43,0.04984
4719.64,0.05061
4713.85,0.05053
4708.07,0.05135
4702.28,0.05024
4696.49,0.04958
4690.71,0.04950
4684.92,0.05052
4679.14,0.05066
4673.35,0.05039
4667.56,0.04975
4661.78,0.04965
4655.99,0.05055
4650.2,0.05000
4644.42,0.04906
4638.63,0.04966
4632.85,0.05112
4627.06,0.05035
4621.27,0.05050
4615.49,0.05057
4609.7,0.05113
4603.92,0.05081
4598.13,0.05014
4592.34,0.05023
4586.56,0.05066
4580.77,0.05006
4574.98,0.04950
4569.2,0.05061
4563.41,0.04981
4557.63,0.05035
4551.84,0.04988
4546.05,0.05020
4540.27,0.05075
4534.48,0.05030
4528.69,0.05090
4522.91,0.05013
4517.12,0.05080
4511.34,0.05028
4505.55,0.05043
4499.76,0.05019
4493.98,0.05041
4488.19,0.05121
4482.4,0.04978
4476.62,0.05037
4470.83,0.05003
4465.05,0.05083
4459.26,0.05026
4453.47,0.05036
4447.69,0.05121
4441.9,0.05016
4436.11,0.05096
4430.33,0.05087
4424.54,0.05109
4418.76,0.05126
4412.97,0.05120
4407.18,0.05140
4401.4,0.05109
4395.61,0.05134
4389.82,0.05021
4384.04,0.05090
4378.25,0.05099
4372.47,0.05064
4366.68,0.05031
4360.89,0.05072
4355.11,0.05079
4349.32,0.05085
4343.53,0.05057
4337.75,0.05120
4331.96,0.05150
4326.18,0.05113
4320.39,0.05113
4314.6,0.05167
4308.82,0.05192
4303.03,0.05148
4297.24,0.05078
4291.46,0.05092
4285.67,0.05072
4279.89,0.05121
4274.1,0.05103
4268.31,0.05122
4262.53,0.05087
4256.74,0.05157
4250.95,0.05072
4245.17,0.05122
4239.38,0.05079
4233.6,0.05095
4227.81,0.05174
4222.02,0.05177
4216.24,0.05133
4210.45,0.05125
4204.66,0.05177
4198.88,0.05180
4193.09,0.05158
4187.31,0.05172
4181.52,0.05135
4175.73,0.05139
4169.95,0.05179
4164.16,0.05127
4158.37,0.05196
4152.59,0.05131
4146.8,0.05171
4141.02,0.05214
4135.23,0.05145
4129.44,0.05229
4123.66,0.05217
4117.87,0.05156
4112.09,0.05176
4106.3,0.05199
4100.51,0.05233
4094.73,0.05189
4088.94,0.05146
4083.15,0.05235
4077.37,0.05175
4071.58,0.05205
4065.8,0.05205
4060.01,0.05200
4054.22,0.05145
4048.44,0.05163
4042.65,0.05168
4036.86,0.05178
4031.08,0.05256
4025.29,0.05161
4019.51,0.05233
4013.72,0.05230
4007.93,0.05167
4002.15,0.05185
3996.36,0.05200
3990.57,0.05237
3984.79,0.05203
3979,0.05240
3973.22,0.05214
3967.43,0.05250
3961.64,0.05272
3955.86,0.05234
3950.07,0.05268
3944.28,0.05192
3938.5,0.05192
3932.71,0.05199
3926.93,0.05248
3921.14,0.05209
3915.35,0.05238
3909.57,0.05267
3903.78,0.05228
3897.99,0.05215
3892.21,0.05228
3886.42,0.05253
3880.64,0.05220
3874.85,0.05226
3869.06,0.05186
3863.28,0.05223
3857.49,0.05300
3851.7,0.05111
3845.92,0.05282
3840.13,0.05222
3834.35,0.05228
3828.56,0.05246
3822.77,0.05277
3816.99,0.05222
3811.2,0.05277
3805.41,0.05229
3799.63,0.05250
3793.84,0.05309
3788.06,0.05312
3782.27,0.05283
3776.48,0.05295
3770.7,0.05253
3764.91,0.05278
3759.12,0.05256
3753.34,0.05266
3747.55,0.05200
3741.77,0.05186
3735.98,0.05221
3730.19,0.05250
3724.41,0.05263
3718.62,0.05243
3712.83,0.05295
3707.05,0.05239
3701.26,0.05288
3695.48,0.05270
3689.69,0.05193
3683.9,0.05244
3678.12,0.05224
3672.33,0.05200
3666.54,0.05203
3660.76,0.05249
3654.97,0.05159
3649.19,0.04824
3643.4,0.05080
3637.61,0.05093
3631.83,0.05017
3626.04,0.04851
3620.25,0.04705
3614.47,0.04876
3608.68,0.05008
3602.9,0.05104
3597.11,0.05079
3591.32,0.05045
3585.54,0.04994
3579.75,0.04995
3573.97,0.04979
3568.18,0.04936
3562.39,0.04907
3556.61,0.04960
3550.82,0.04924
3545.03,0.04764
3539.25,0.04710
3533.46,0.04509
3527.68,0.04217
3521.89,0.04209
3516.1,0.04276
3510.32,0.04379
3504.53,0.04523
3498.74,0.04508
3492.96,0.04444
3487.17,0.04483
3481.39,0.04469
3475.6,0.04362
3469.81,0.04340
3464.03,0.04216
3458.24,0.04117
3452.45,0.04164
3446.67,0.04079
3440.88,0.04068
3435.1,0.04120
3429.31,0.04113
3423.52,0.04057
3417.74,0.04066
3411.95,0.04002
3406.16,0.03954
3400.38,0.03952
3394.59,0.03931
3388.81,0.03931
3383.02,0.04022
3377.23,0.04121
3371.45,0.04170
3365.66,0.04291
3359.87,0.04290
3354.09,0.04186
3348.3,0.04321
3342.52,0.04363
3336.73,0.04333
3330.94,0.04312
3325.16,0.04274
3319.37,0.04260
3313.58,0.04294
3307.8,0.04247
3302.01,0.04293
3296.23,0.04344
3290.44,0.04264
3284.65,0.04298
3278.87,0.04326
3273.08,0.04323
3267.29,0.04421
3261.51,0.04410
3255.72,0.04452
3249.94,0.04381
3244.15,0.04337
3238.36,0.04369
3232.58,0.04314
3226.79,0.04198
3221,0.04172
3215.22,0.04202
3209.43,0.04150
3203.65,0.04167
3197.86,0.04306
3192.07,0.04326
3186.29,0.04340
3180.5,0.04376
3174.71,0.04377
3168.93,0.04459
3163.14,0.04549
3157.36,0.04519
3151.57,0.04509
3145.78,0.04608
3140,0.04589
3134.21,0.04559
3128.42,0.04488
3122.64,0.04536
3116.85,0.04535
3111.07,0.04531
3105.28,0.04619
3099.49,0.04561
3093.71,0.04604
3087.92,0.04626
3082.14,0.04648
3076.35,0.04620
3070.56,0.04612
3064.78,0.04623
3058.99,0.04581
3053.2,0.04626
3047.42,0.04632
3041.63,0.04655
3035.85,0.04631
3030.06,0.04630
3024.27,0.04708
3018.49,0.04652
3012.7,0.04648
3006.91,0.04649
3001.13,0.04651
2995.34,0.04573
2989.56,0.04503
2983.77,0.04498
2977.98,0.04393
2972.2,0.04397
2966.41,0.04248
2960.62,0.04219
2954.84,0.04189
2949.05,0.04084
2943.27,0.04111
2937.48,0.04075
2931.69,0.04116
2925.91,0.04301
2920.12,0.04635
2914.33,0.04829
2908.55,0.04557
2902.76,0.04523
2896.98,0.04599
2891.19,0.04686
2885.4,0.04710
2879.62,0.04699
2873.83,0.04703
2868.04,0.04665
2862.26,0.04628
2856.47,0.04578
2850.69,0.04829
2844.9,0.04950
2839.11,0.04955
2833.33,0.05071
2827.54,0.05187
2821.75,0.05196
2815.97,0.05299
2810.18,0.05297
2804.4,0.05311
2798.61,0.05332
2792.82,0.05360
2787.04,0.05366
2781.25,0.05376
2775.46,0.05397
2769.68,0.05452
2763.89,0.05415
2758.11,0.05421
2752.32,0.05422
2746.53,0.05412
2740.75,0.05438
2734.96,0.05480
2729.17,0.05494
2723.39,0.05494
2717.6,0.05524
2711.82,0.05545
2706.03,0.05573
2700.24,0.05595
2694.46,0.05576
2688.67,0.05581
2682.88,0.05568
2677.1,0.05629
2671.31,0.05619
2665.53,0.05608
2659.74,0.05610
2653.95,0.05631
2648.17,0.05611
2642.38,0.05623
2636.59,0.05608
2630.81,0.05623
2625.02,0.05628
2619.24,0.05629
2613.45,0.05668
2607.66,0.05606
2601.88,0.05630
2596.09,0.05605
2590.3,0.05638
2584.52,0.05633
2578.73,0.05658
2572.95,0.05657
2567.16,0.05652
2561.37,0.05674
2555.59,0.05643
2549.8,0.05644
2544.02,0.05671
2538.23,0.05641
2532.44,0.05637
2526.66,0.05615
2520.87,0.05621
2515.08,0.05636
2509.3,0.05616
2503.51,0.05683
2497.73,0.05747
2491.94,0.05735
2486.15,0.05824
2480.37,0.05829
2474.58,0.05870
2468.79,0.05871
2463.01,0.05853
2457.22,0.05892
2451.44,0.05892
2445.65,0.05921
2439.86,0.05916
2434.08,0.05927
2428.29,0.05906
2422.5,0.05929
2416.72,0.05938
2410.93,0.05919
2405.15,0.05979
2399.36,0.05972
2393.57,0.05958
2387.79,0.05952
2382,0.05922
2376.21,0.05922
2370.43,0.05885
2364.64,0.05867
2358.86,0.05820
2353.07,0.05903
2347.28,0.05897
2341.5,0.05843
2335.71,0.05868
2329.92,0.05906
2324.14,0.05902
2318.35,0.05933
2312.57,0.05967
2306.78,0.05990
2300.99,0.05985
2295.21,0.05984
2289.42,0.05992
2283.63,0.05993
2277.85,0.06009
2272.06,0.05990
2266.28,0.05997
2260.49,0.06036
2254.7,0.06034
2248.92,0.05979
2243.13,0.05892
2237.34,0.05785
2231.56,0.05958
2225.77,0.05998
2219.99,0.06001
2214.2,0.05993
2208.41,0.06005
2202.63,0.06023
2196.84,0.06019
2191.05,0.06040
2185.27,0.06079
2179.48,0.06064
2173.7,0.06099
2167.91,0.06126
2162.12,0.06117
2156.34,0.06088
2150.55,0.06081
2144.76,0.06100
2138.98,0.06099
2133.19,0.06083
2127.41,0.06104
2121.62,0.06110
2115.83,0.06134
2110.05,0.06121
2104.26,0.06099
2098.47,0.06124
2092.69,0.06139
2086.9,0.06173
2081.12,0.06133
2075.33,0.06157
2069.54,0.06140
2063.76,0.06150
2057.97,0.06139
2052.19,0.06159
2046.4,0.06184
2040.61,0.06176
2034.83,0.06167
2029.04,0.06165
2023.25,0.06202
2017.47,0.06169
2011.68,0.06132
2005.9,0.06156
2000.11,0.06172
1994.32,0.06146
1988.54,0.06165
1982.75,0.06150
1976.96,0.06192
1971.18,0.06168
1965.39,0.06185
1959.61,0.06193
1953.82,0.06183
1948.03,0.06186
1942.25,0.06178
1936.46,0.06191
1930.67,0.06183
1924.89,0.06179
1919.1,0.06183
1913.32,0.06201
1907.53,0.06183
1901.74,0.06173
1895.96,0.06187
1890.17,0.06182
1884.38,0.06159
1878.6,0.06153
1872.81,0.06125
1867.03,0.06076
1861.24,0.06074
1855.45,0.06089
1849.67,0.06045
1843.88,0.06008
1838.09,0.06016
1832.31,0.05944
1826.52,0.05934
1820.74,0.05951
1814.95,0.05920
1809.16,0.05890
1803.38,0.05793
1797.59,0.05622
1791.8,0.05592
1786.02,0.05697
1780.23,0.05764
1774.45,0.05690
1768.66,0.05638
1762.87,0.05532
1757.09,0.05381
1751.3,0.05173
1745.51,0.04908
1739.73,0.04624
1733.94,0.04334
1728.16,0.04222
1722.37,0.04076
1716.58,0.03911
1710.8,0.03950
1705.01,0.03808
1699.22,0.03635
1693.44,0.03704
1687.65,0.03927
1681.87,0.04156
1676.08,0.04381
1670.29,0.04416
1664.51,0.04401
1658.72,0.04593
1652.93,0.04599
1647.15,0.04720
1641.36,0.04781
1635.58,0.04696
1629.79,0.04615
1624,0.04532
1618.22,0.04461
1612.43,0.04385
1606.64,0.04093
1600.86,0.04170
1595.07,0.04398
1589.29,0.04572
1583.5,0.04689
1577.71,0.04760
1571.93,0.04751
1566.14,0.04688
1560.35,0.04437
1554.57,0.04305
1548.78,0.04207
1543,0.04095
1537.21,0.04130
1531.42,0.04205
1525.64,0.04125
1519.85,0.03996
1514.07,0.03953
1508.28,0.03972
1502.49,0.04285
1496.71,0.04346
1490.92,0.04348
1485.13,0.04388
1479.35,0.04657
1473.56,0.04789
1467.78,0.04661
1461.99,0.04583
1456.2,0.04380
1450.42,0.04390
1444.63,0.04567
1438.84,0.04835
1433.06,0.04950
1427.27,0.05093
1421.49,0.05418
1415.7,0.05793
1409.91,0.05955
1404.13,0.05877
1398.34,0.05911
1392.55,0.06034
1386.77,0.06097
1380.98,0.06123
1375.2,0.06156
1369.41,0.06151
1363.62,0.06122
1357.84,0.06254
1352.05,0.06440
1346.26,0.06532
1340.48,0.06554
1334.69,0.06553
1328.91,0.06573
1323.12,0.06592
1317.33,0.06567
1311.55,0.06555
1305.76,0.06549
1299.97,0.06502
1294.19,0.06479
1288.4,0.06470
1282.62,0.06462
1276.83,0.06366
1271.04,0.06290
1265.26,0.06232
1259.47,0.06190
1253.68,0.06101
1247.9,0.06172
1242.11,0.06156
1236.33,0.06206
1230.54,0.06292
1224.75,0.06360
1218.97,0.06416
1213.18,0.06410
1207.39,0.06371
1201.61,0.06254
1195.82,0.06143
1190.04,0.06104
1184.25,0.06175
1178.46,0.06236
1172.68,0.06184
1166.89,0.06074
1161.1,0.06021
1155.32,0.06036
1149.53,0.06051
1143.75,0.06127
1137.96,0.06152
1132.17,0.06171
1126.39,0.05923
1120.6,0.05752
1114.81,0.05753
1109.03,0.05802
1103.24,0.05986
1097.46,0.06049
1091.67,0.06051
1085.88,0.06086
1080.1,0.06130
1074.31,0.06156
1068.52,0.06175
1062.74,0.06094
1056.95,0.06000
1051.17,0.05877
1045.38,0.05654
1039.59,0.05409
1033.81,0.05216
1028.02,0.05159
1022.24,0.05269
1016.45,0.05521
1010.66,0.05846
1004.88,0.05968
999.09,0.05974
993.304,0.06093
987.518,0.05972
981.731,0.05771
975.945,0.05437
970.159,0.05307
964.373,0.05616
958.586,0.06014
952.8,0.06222
947.014,0.06380
941.228,0.06449
935.441,0.06560
929.655,0.06491
923.869,0.06460
918.083,0.06455
912.297,0.06367
906.51,0.06519
900.724,0.06629
894.938,0.06241
889.152,0.05980
883.365,0.05738
877.579,0.05617
871.793,0.05458
866.007,0.06130
860.22,0.06192
854.434,0.05861
848.648,0.05960
842.862,0.06071
837.075,0.06082
831.289,0.05970
825.503,0.05952
819.717,0.05799
813.931,0.05520
808.144,0.05282
802.358,0.05078
796.572,0.05215
790.786,0.05298
784.999,0.05398
779.213,0.05460
773.427,0.05445
767.641,0.05539
761.854,0.05470
756.068,0.05428
750.282,0.05351
744.496,0.05364
738.709,0.05498
732.923,0.05489
727.137,0.05581
721.351,0.05651
715.565,0.05294
709.778,0.05529
703.992,0.05615
698.206,0.05462
692.42,0.05414
686.633,0.05317
680.847,0.05127
675.061,0.05025
669.275,0.05022
663.488,0.05125
657.702,0.05166
651.916,0.05191
646.13,0.05215
640.343,0.05209
634.557,0.05020
628.771,0.04860
622.985,0.04584
617.198,0.04591
611.412,0.04715
605.626,0.04621
599.84,0.04519