File: 01_Data/Rubber_Foam_Pipe_Insulation/FTIR/IS/Rubber_Foam_Pipe_Insulation_IS_S_220825_R4.dpt
7497.03,0.04563
7491.25,0.05372
7485.46,0.04693
7479.67,0.04418
7473.89,0.04558
7468.1,0.03667
7462.32,0.04880
7456.53,0.04899
7450.74,0.05015
7444.96,0.05044
7439.17,0.03815
7433.38,0.04623
7427.6,0.05570
7421.81,0.05323
7416.03,0.05018
7410.24,0.04383
7404.45,0.04702
7398.67,0.04701
7392.88,0.04195
7387.09,0.05200
7381.31,0.05157
7375.52,0.04369
7369.74,0.04430
7363.95,0.04351
7358.16,0.04250
7352.38,0.04173
7346.59,0.05281
7340.8,0.05363
7335.02,0.04683
7329.23,0.04779
7323.45,0.04516
7317.66,0.04678
7311.87,0.04586
7306.09,0.04189
7300.3,0.05366
7294.51,0.04849
7288.73,0.05304
7282.94,0.04940
7277.16,0.03989
7271.37,0.04590
7265.58,0.04948
7259.8,0.04969
7254.01,0.05033
7248.22,0.05697
7242.44,0.03914
7236.65,0.04762
7230.87,0.04960
7225.08,0.05171
7219.29,0.04199
7213.51,0.04465
7207.72,0.04696
7201.93,0.04340
7196.15,0.04373
7190.36,0.04739
7184.58,0.04270
7178.79,0.04714
7173,0.04614
7167.22,0.05221
7161.43,0.04155
7155.65,0.04300
7149.86,0.03595
7144.07,0.03949
7138.29,0.04996
7132.5,0.05194
7126.71,0.04599
7120.93,0.04772
7115.14,0.04754
7109.36,0.04859
7103.57,0.04939
7097.78,0.05122
7092,0.04931
7086.21,0.04703
7080.42,0.05634
7074.64,0.04969
7068.85,0.04816
7063.07,0.04800
7057.28,0.04615
7051.49,0.04283
7045.71,0.04204
7039.92,0.04371
7034.13,0.04921
7028.35,0.04915
7022.56,0.04575
7016.78,0.04989
7010.99,0.05018
7005.2,0.04506
6999.42,0.04784
6993.63,0.04394
6987.84,0.04698
6982.06,0.04147
6976.27,0.04369
6970.49,0.04681
6964.7,0.05065
6958.91,0.04750
6953.13,0.05032
6947.34,0.05293
6941.55,0.04524
6935.77,0.04666
6929.98,0.04690
6924.2,0.05159
6918.41,0.04354
6912.62,0.04303
6906.84,0.04528
6901.05,0.04593
6895.26,0.04651
6889.48,0.04638
6883.69,0.04511
6877.91,0.04399
6872.12,0.04134
6866.33,0.04783
6860.55,0.05130
6854.76,0.04779
6848.97,0.04852
6843.19,0.04505
6837.4,0.04138
6831.62,0.04896
6825.83,0.04707
6820.04,0.04980
6814.26,0.04666
6808.47,0.05183
6802.68,0.04932
6796.9,0.04113
6791.11,0.04345
6785.33,0.04354
6779.54,0.04634
6773.75,0.04830
6767.97,0.04206
6762.18,0.04486
6756.39,0.04263
6750.61,0.04567
6744.82,0.04417
6739.04,0.04332
6733.25,0.04344
6727.46,0.04488
6721.68,0.05079
6715.89,0.04635
6710.1,0.04873
6704.32,0.05028
6698.53,0.04645
6692.75,0.04562
6686.96,0.04396
6681.17,0.04444
6675.39,0.04330
6669.6,0.04161
6663.82,0.03994
6658.03,0.04442
6652.24,0.04967
6646.46,0.04492
6640.67,0.04364
6634.88,0.04315
6629.1,0.04520
6623.31,0.04149
6617.53,0.04437
6611.74,0.04876
6605.95,0.04849
6600.17,0.04384
6594.38,0.04111
6588.59,0.04630
6582.81,0.04724
6577.02,0.04823
6571.24,0.04879
6565.45,0.04889
6559.66,0.04437
6553.88,0.04517
6548.09,0.04885
6542.3,0.04967
6536.52,0.04614
6530.73,0.04657
6524.95,0.04407
6519.16,0.04513
6513.37,0.04595
6507.59,0.04504
6501.8,0.04239
6496.01,0.04674
6490.23,0.04557
6484.44,0.04845
6478.66,0.04857
6472.87,0.04758
6467.08,0.04786
6461.3,0.04817
6455.51,0.04769
6449.72,0.04236
6443.94,0.04464
6438.15,0.04505
6432.37,0.04712
6426.58,0.04800
6420.79,0.04509
6415.01,0.04440
6409.22,0.04691
6403.43,0.04905
6397.65,0.04859
6391.86,0.04367
6386.08,0.04849
6380.29,0.04391
6374.5,0.04413
6368.72,0.04747
6362.93,0.04277
6357.14,0.04885
6351.36,0.04729
6345.57,0.04640
6339.79,0.04453
6334,0.04336
6328.21,0.04819
6322.43,0.04945
6316.64,0.04562
6310.85,0.04280
6305.07,0.04493
6299.28,0.04511
6293.5,0.04590
6287.71,0.04700
6281.92,0.05092
6276.14,0.04840
6270.35,0.04455
6264.56,0.04531
6258.78,0.04637
6252.99,0.04448
6247.21,0.04890
6241.42,0.04652
6235.63,0.04238
6229.85,0.04624
6224.06,0.04373
6218.27,0.04905
6212.49,0.04492
6206.7,0.04393
6200.92,0.04589
6195.13,0.04294
6189.34,0.04602
6183.56,0.04757
6177.77,0.04363
6171.98,0.04491
6166.2,0.04360
6160.41,0.04591
6154.63,0.04377
6148.84,0.04554
6143.05,0.04802
6137.27,0.04590
6131.48,0.04707
6125.7,0.04594
6119.91,0.04551
6114.12,0.04565
6108.34,0.04536
6102.55,0.04715
6096.76,0.04697
6090.98,0.04816
6085.19,0.04447
6079.41,0.04546
6073.62,0.04366
6067.83,0.04588
6062.05,0.04551
6056.26,0.04588
6050.47,0.04572
6044.69,0.04584
6038.9,0.04553
6033.12,0.04357
6027.33,0.04793
6021.54,0.05019
6015.76,0.04831
6009.97,0.04711
6004.18,0.04607
5998.4,0.04501
5992.61,0.04517
5986.83,0.04519
5981.04,0.04605
5975.25,0.04419
5969.47,0.04468
5963.68,0.04521
5957.89,0.04658
5952.11,0.04860
5946.32,0.04648
5940.54,0.04669
5934.75,0.04723
5928.96,0.04785
5923.18,0.04720
5917.39,0.04648
5911.6,0.04648
5905.82,0.04695
5900.03,0.04651
5894.25,0.04660
5888.46,0.04631
5882.67,0.04708
5876.89,0.04682
5871.1,0.04668
5865.31,0.04590
5859.53,0.04367
5853.74,0.04802
5847.96,0.04410
5842.17,0.04576
5836.38,0.04639
5830.6,0.04751
5824.81,0.04619
5819.02,0.04673
5813.24,0.04483
5807.45,0.04501
5801.67,0.04762
5795.88,0.04732
5790.09,0.04587
5784.31,0.04819
5778.52,0.04584
5772.73,0.04736
5766.95,0.04753
5761.16,0.04700
5755.38,0.04840
5749.59,0.04725
5743.8,0.04510
5738.02,0.04739
5732.23,0.04691
5726.44,0.04721
5720.66,0.04671
5714.87,0.04597
5709.09,0.04882
5703.3,0.04693
5697.51,0.04747
5691.73,0.04679
5685.94,0.04657
5680.15,0.04536
5674.37,0.04645
5668.58,0.04617
5662.8,0.04706
5657.01,0.04905
5651.22,0.04785
5645.44,0.04512
5639.65,0.04621
5633.87,0.04764
5628.08,0.04675
5622.29,0.04614
5616.51,0.04694
5610.72,0.04687
5604.93,0.04792
5599.15,0.04833
5593.36,0.04578
5587.58,0.04719
5581.79,0.04654
5576,0.04699
5570.22,0.04752
5564.43,0.04738
5558.64,0.04978
5552.86,0.04857
5547.07,0.04657
5541.29,0.04714
5535.5,0.04866
5529.71,0.04729
5523.93,0.04692
5518.14,0.04693
5512.35,0.04685
5506.57,0.04758
5500.78,0.04826
5495,0.04799
5489.21,0.04729
5483.42,0.04752
5477.64,0.04725
5471.85,0.04826
5466.06,0.04693
5460.28,0.04806
5454.49,0.04777
5448.71,0.04805
5442.92,0.04752
5437.13,0.04813
5431.35,0.04621
5425.56,0.04733
5419.77,0.04826
5413.99,0.04813
5408.2,0.04816
5402.42,0.05007
5396.63,0.04796
5390.84,0.04856
5385.06,0.04704
5379.27,0.04833
5373.48,0.04793
5367.7,0.04690
5361.91,0.04867
5356.13,0.04711
5350.34,0.04764
5344.55,0.04821
5338.77,0.04769
5332.98,0.04867
5327.19,0.04807
5321.41,0.04706
5315.62,0.04825
5309.84,0.04882
5304.05,0.04828
5298.26,0.04848
5292.48,0.04899
5286.69,0.04818
5280.9,0.04885
5275.12,0.04859
5269.33,0.04782
5263.55,0.04807
5257.76,0.04821
5251.97,0.04716
5246.19,0.04840
5240.4,0.04893
5234.61,0.04841
5228.83,0.04814
5223.04,0.04742
5217.26,0.04751
5211.47,0.04918
5205.68,0.05058
5199.9,0.04929
5194.11,0.04760
5188.32,0.04847
5182.54,0.04853
5176.75,0.05017
5170.97,0.04900
5165.18,0.04854
5159.39,0.04827
5153.61,0.04866
5147.82,0.04807
5142.03,0.04850
5136.25,0.04822
5130.46,0.04944
5124.68,0.04893
5118.89,0.04900
5113.1,0.04849
5107.32,0.04791
5101.53,0.04863
5095.75,0.04810
5089.96,0.04902
5084.17,0.04928
5078.39,0.04723
5072.6,0.04817
5066.81,0.04839
5061.03,0.04802
5055.24,0.04888
5049.46,0.04864
5043.67,0.04902
5037.88,0.04826
5032.1,0.04944
5026.31,0.04986
5020.52,0.04897
5014.74,0.04927
5008.95,0.04901
5003.17,0.04945
4997.38,0.04964
4991.59,0.05055
4985.81,0.04968
4980.02,0.04960
4974.23,0.04864
4968.45,0.04933
4962.66,0.04885
4956.88,0.04948
4951.09,0.04828
4945.3,0.04846
4939.52,0.04886
4933.73,0.05015
4927.94,0.04883
4922.16,0.04937
4916.37,0.04961
4910.59,0.04911
4904.8,0.04933
4899.01,0.04931
4893.23,0.04946
4887.44,0.04878
4881.65,0.04945
4875.87,0.04916
4870.08,0.05040
4864.3,0.04897
4858.51,0.04933
4852.72,0.05001
4846.94,0.04978
4841.15,0.04984
4835.36,0.04866
4829.58,0.05068
4823.79,0.04992
4818.01,0.04964
4812.22,0.04993
4806.43,0.04879
4800.65,0.05005
4794.86,0.05035
4789.07,0.05014
4783.29,0.04953
4777.5,0.04913
4771.72,0.04981
4765.93,0.04918
4760.14,0.04981
4754.36,0.04934
4748.57,0.04885
4742.78,0.04995
4737,0.04979
4731.21,0.04992
4725.43,0.04920
4719.64,0.04996
4713.85,0.05034
4708.07,0.05018
4702.28,0.05021
4696.49,0.05090
4690.71,0.04942
4684.92,0.04980
4679.14,0.04997
4673.35,0.04995
4667.56,0.05041
4661.78,0.05025
4655.99,0.05053
4650.2,0.05108
4644.42,0.05088
4638.63,0.05066
4632.85,0.05003
4627.06,0.05022
4621.27,0.05071
4615.49,0.05040
4609.7,0.05020
4603.92,0.05069
4598.13,0.05014
4592.34,0.05142
4586.56,0.05083
4580.77,0.04980
4574.98,0.05040
4569.2,0.05083
4563.41,0.05056
4557.63,0.04980
4551.84,0.05036
4546.05,0.05016
4540.27,0.04998
4534.48,0.05023
4528.69,0.05036
4522.91,0.05027
4517.12,0.05013
4511.34,0.05110
4505.55,0.05081
4499.76,0.05115
4493.98,0.05093
4488.19,0.05063
4482.4,0.05046
4476.62,0.05006
4470.83,0.05041
4465.05,0.05082
4459.26,0.05029
4453.47,0.05029
4447.69,0.05016
4441.9,0.05081
4436.11,0.05033
4430.33,0.05084
4424.54,0.05099
4418.76,0.05147
4412.97,0.05098
4407.18,0.05069
4401.4,0.05151
4395.61,0.05148
4389.82,0.05021
4384.04,0.05093
4378.25,0.05097
4372.47,0.05148
4366.68,0.05116
4360.89,0.05091
4355.11,0.05113
4349.32,0.05139
4343.53,0.05170
4337.75,0.05084
4331.96,0.05073
4326.18,0.05077
4320.39,0.05093
4314.6,0.05061
4308.82,0.05092
4303.03,0.05144
4297.24,0.05111
4291.46,0.05120
4285.67,0.05117
4279.89,0.05174
4274.1,0.05195
4268.31,0.05152
4262.53,0.05130
4256.74,0.05139
4250.95,0.05157
4245.17,0.05116
4239.38,0.05099
4233.6,0.05161
4227.81,0.05124
4222.02,0.05111
4216.24,0.05158
4210.45,0.05128
4204.66,0.05169
4198.88,0.05185
4193.09,0.05140
4187.31,0.05141
4181.52,0.05167
4175.73,0.05253
4169.95,0.05219
4164.16,0.05177
4158.37,0.05153
4152.59,0.05120
4146.8,0.05145
4141.02,0.05193
4135.23,0.05183
4129.44,0.05202
4123.66,0.05194
4117.87,0.05223
4112.09,0.05187
4106.3,0.05177
4100.51,0.05272
4094.73,0.05203
4088.94,0.05220
4083.15,0.05225
4077.37,0.05221
4071.58,0.05295
4065.8,0.05246
4060.01,0.05163
4054.22,0.05191
4048.44,0.05207
4042.65,0.05221
4036.86,0.05231
4031.08,0.05230
4025.29,0.05194
4019.51,0.05212
4013.72,0.05256
4007.93,0.05212
4002.15,0.05247
3996.36,0.05252
3990.57,0.05288
3984.79,0.05266
3979,0.05254
3973.22,0.05253
3967.43,0.05286
3961.64,0.05293
3955.86,0.05289
3950.07,0.05245
3944.28,0.05300
3938.5,0.05237
3932.71,0.05285
3926.93,0.05261
3921.14,0.05308
3915.35,0.05242
3909.57,0.05310
3903.78,0.05317
3897.99,0.05306
3892.21,0.05282
3886.42,0.05318
3880.64,0.05303
3874.85,0.05325
3869.06,0.05322
3863.28,0.05341
3857.49,0.05340
3851.7,0.05238
3845.92,0.05274
3840.13,0.05354
3834.35,0.05297
3828.56,0.05375
3822.77,0.05357
3816.99,0.05313
3811.2,0.05264
3805.41,0.05296
3799.63,0.05278
3793.84,0.05336
3788.06,0.05322
3782.27,0.05375
3776.48,0.05378
3770.7,0.05325
3764.91,0.05316
3759.12,0.05309
3753.34,0.05311
3747.55,0.05297
3741.77,0.05384
3735.98,0.05360
3730.19,0.05301
3724.41,0.05361
3718.62,0.05335
3712.83,0.05299
3707.05,0.05278
3701.26,0.05334
3695.48,0.05270
3689.69,0.05293
3683.9,0.05265
3678.12,0.05243
3672.33,0.05302
3666.54,0.05259
3660.76,0.05319
3654.97,0.05196
3649.19,0.04904
3643.4,0.05119
3637.61,0.05160
3631.83,0.05112
3626.04,0.04953
3620.25,0.04770
3614.47,0.04960
3608.68,0.05077
3602.9,0.05103
3597.11,0.05071
3591.32,0.05117
3585.54,0.05096
3579.75,0.05121
3573.97,0.05062
3568.18,0.05028
3562.39,0.04956
3556.61,0.05007
3550.82,0.04920
3545.03,0.04845
3539.25,0.04757
3533.46,0.04498
3527.68,0.04251
3521.89,0.04262
3516.1,0.04293
3510.32,0.04401
3504.53,0.04474
3498.74,0.04606
3492.96,0.04575
3487.17,0.04507
3481.39,0.04504
3475.6,0.04354
3469.81,0.04286
3464.03,0.04204
3458.24,0.04168
3452.45,0.04131
3446.67,0.04124
3440.88,0.04093
3435.1,0.04089
3429.31,0.04138
3423.52,0.04119
3417.74,0.04099
3411.95,0.03999
3406.16,0.03941
3400.38,0.03896
3394.59,0.03945
3388.81,0.03959
3383.02,0.04008
3377.23,0.04068
3371.45,0.04231
3365.66,0.04241
3359.87,0.04288
3354.09,0.04374
3348.3,0.04297
3342.52,0.04351
3336.73,0.04354
3330.94,0.04323
3325.16,0.04299
3319.37,0.04269
3313.58,0.04310
3307.8,0.04250
3302.01,0.04318
3296.23,0.04296
3290.44,0.04323
3284.65,0.04277
3278.87,0.04280
3273.08,0.04373
3267.29,0.04462
3261.51,0.04491
3255.72,0.04466
3249.94,0.04384
3244.15,0.04382
3238.36,0.04359
3232.58,0.04209
3226.79,0.04240
3221,0.04196
3215.22,0.04233
3209.43,0.04159
3203.65,0.04149
3197.86,0.04326
3192.07,0.04361
3186.29,0.04324
3180.5,0.04434
3174.71,0.04513
3168.93,0.04457
3163.14,0.04547
3157.36,0.04544
3151.57,0.04560
3145.78,0.04549
3140,0.04543
3134.21,0.04541
3128.42,0.04582
3122.64,0.04638
3116.85,0.04612
3111.07,0.04576
3105.28,0.04606
3099.49,0.04627
3093.71,0.04637
3087.92,0.04610
3082.14,0.04605
3076.35,0.04598
3070.56,0.04608
3064.78,0.04594
3058.99,0.04628
3053.2,0.04650
3047.42,0.04642
3041.63,0.04669
3035.85,0.04671
3030.06,0.04682
3024.27,0.04700
3018.49,0.04650
3012.7,0.04660
3006.91,0.04623
3001.13,0.04631
2995.34,0.04597
2989.56,0.04530
2983.77,0.04506
2977.98,0.04452
2972.2,0.04396
2966.41,0.04263
2960.62,0.04240
2954.84,0.04196
2949.05,0.04121
2943.27,0.04127
2937.48,0.04115
2931.69,0.04163
2925.91,0.04277
2920.12,0.04639
2914.33,0.04844
2908.55,0.04564
2902.76,0.04556
2896.98,0.04628
2891.19,0.04673
2885.4,0.04709
2879.62,0.04727
2873.83,0.04697
2868.04,0.04663
2862.26,0.04659
2856.47,0.04612
2850.69,0.04858
2844.9,0.04926
2839.11,0.04993
2833.33,0.05064
2827.54,0.05210
2821.75,0.05229
2815.97,0.05316
2810.18,0.05275
2804.4,0.05318
2798.61,0.05343
2792.82,0.05327
2787.04,0.05397
2781.25,0.05418
2775.46,0.05371
2769.68,0.05369
2763.89,0.05443
2758.11,0.05421
2752.32,0.05448
2746.53,0.05478
2740.75,0.05489
2734.96,0.05556
2729.17,0.05560
2723.39,0.05547
2717.6,0.05508
2711.82,0.05556
2706.03,0.05536
2700.24,0.05548
2694.46,0.05626
2688.67,0.05607
2682.88,0.05588
2677.1,0.05628
2671.31,0.05619
2665.53,0.05617
2659.74,0.05630
2653.95,0.05635
2648.17,0.05623
2642.38,0.05661
2636.59,0.05672
2630.81,0.05640
2625.02,0.05641
2619.24,0.05626
2613.45,0.05635
2607.66,0.05659
2601.88,0.05637
2596.09,0.05617
2590.3,0.05688
2584.52,0.05642
2578.73,0.05637
2572.95,0.05681
2567.16,0.05698
2561.37,0.05692
2555.59,0.05683
2549.8,0.05697
2544.02,0.05662
2538.23,0.05664
2532.44,0.05639
2526.66,0.05632
2520.87,0.05636
2515.08,0.05623
2509.3,0.05668
2503.51,0.05735
2497.73,0.05774
2491.94,0.05804
2486.15,0.05805
2480.37,0.05836
2474.58,0.05865
2468.79,0.05901
2463.01,0.05905
2457.22,0.05908
2451.44,0.05921
2445.65,0.05931
2439.86,0.05915
2434.08,0.05921
2428.29,0.05915
2422.5,0.05935
2416.72,0.05960
2410.93,0.05966
2405.15,0.05929
2399.36,0.05981
2393.57,0.05959
2387.79,0.05985
2382,0.05995
2376.21,0.05996
2370.43,0.05971
2364.64,0.05980
2358.86,0.05984
2353.07,0.05961
2347.28,0.05985
2341.5,0.05967
2335.71,0.05962
2329.92,0.05985
2324.14,0.06000
2318.35,0.06025
2312.57,0.06001
2306.78,0.06024
2300.99,0.05990
2295.21,0.05964
2289.42,0.06002
2283.63,0.06036
2277.85,0.06036
2272.06,0.06051
2266.28,0.06048
2260.49,0.06041
2254.7,0.05998
2248.92,0.05996
2243.13,0.05928
2237.34,0.05856
2231.56,0.05947
2225.77,0.05994
2219.99,0.06060
2214.2,0.06023
2208.41,0.06057
2202.63,0.06048
2196.84,0.06065
2191.05,0.06031
2185.27,0.06137
2179.48,0.06092
2173.7,0.06118
2167.91,0.06114
2162.12,0.06093
2156.34,0.06139
2150.55,0.06116
2144.76,0.06149
2138.98,0.06160
2133.19,0.06137
2127.41,0.06158
2121.62,0.06166
2115.83,0.06160
2110.05,0.06122
2104.26,0.06151
2098.47,0.06155
2092.69,0.06148
2086.9,0.06136
2081.12,0.06178
2075.33,0.06166
2069.54,0.06193
2063.76,0.06156
2057.97,0.06174
2052.19,0.06163
2046.4,0.06142
2040.61,0.06156
2034.83,0.06193
2029.04,0.06174
2023.25,0.06179
2017.47,0.06187
2011.68,0.06194
2005.9,0.06202
2000.11,0.06220
1994.32,0.06229
1988.54,0.06197
1982.75,0.06187
1976.96,0.06184
1971.18,0.06190
1965.39,0.06231
1959.61,0.06198
1953.82,0.06216
1948.03,0.06192
1942.25,0.06248
1936.46,0.06233
1930.67,0.06217
1924.89,0.06233
1919.1,0.06209
1913.32,0.06224
1907.53,0.06217
1901.74,0.06252
1895.96,0.06202
1890.17,0.06196
1884.38,0.06199
1878.6,0.06179
1872.81,0.06175
1867.03,0.06116
1861.24,0.06137
1855.45,0.06110
1849.67,0.06066
1843.88,0.06084
1838.09,0.06044
1832.31,0.06006
1826.52,0.05995
1820.74,0.05976
1814.95,0.05940
1809.16,0.05935
1803.38,0.05849
1797.59,0.05670
1791.8,0.05669
1786.02,0.05799
1780.23,0.05778
1774.45,0.05756
1768.66,0.05712
1762.87,0.05579
1757.09,0.05399
1751.3,0.05249
1745.51,0.04954
1739.73,0.04629
1733.94,0.04423
1728.16,0.04269
1722.37,0.04118
1716.58,0.04000
1710.8,0.03945
1705.01,0.03855
1699.22,0.03741
1693.44,0.03749
1687.65,0.03982
1681.87,0.04288
1676.08,0.04454
1670.29,0.04433
1664.51,0.04420
1658.72,0.04584
1652.93,0.04800
1647.15,0.04807
1641.36,0.04765
1635.58,0.04735
1629.79,0.04691
1624,0.04569
1618.22,0.04505
1612.43,0.04381
1606.64,0.04138
1600.86,0.04196
1595.07,0.04418
1589.29,0.04579
1583.5,0.04723
1577.71,0.04784
1571.93,0.04816
1566.14,0.04731
1560.35,0.04546
1554.57,0.04350
1548.78,0.04226
1543,0.04181
1537.21,0.04180
1531.42,0.04225
1525.64,0.04151
1519.85,0.04033
1514.07,0.04034
1508.28,0.04124
1502.49,0.04361
1496.71,0.04400
1490.92,0.04399
1485.13,0.04413
1479.35,0.04683
1473.56,0.04875
1467.78,0.04719
1461.99,0.04588
1456.2,0.04504
1450.42,0.04422
1444.63,0.04602
1438.84,0.04875
1433.06,0.05002
1427.27,0.05133
1421.49,0.05475
1415.7,0.05820
1409.91,0.05975
1404.13,0.05928
1398.34,0.05972
1392.55,0.06064
1386.77,0.06154
1380.98,0.06163
1375.2,0.06156
1369.41,0.06180
1363.62,0.06199
1357.84,0.06341
1352.05,0.06425
1346.26,0.06547
1340.48,0.06582
1334.69,0.06575
1328.91,0.06576
1323.12,0.06593
1317.33,0.06592
1311.55,0.06567
1305.76,0.06560
1299.97,0.06523
1294.19,0.06539
1288.4,0.06513
1282.62,0.06447
1276.83,0.06402
1271.04,0.06352
1265.26,0.06267
1259.47,0.06182
1253.68,0.06117
1247.9,0.06187
1242.11,0.06214
1236.33,0.06245
1230.54,0.06356
1224.75,0.06407
1218.97,0.06438
1213.18,0.06449
1207.39,0.06370
1201.61,0.06264
1195.82,0.06123
1190.04,0.06099
1184.25,0.06238
1178.46,0.06317
1172.68,0.06177
1166.89,0.06132
1161.1,0.06043
1155.32,0.06099
1149.53,0.06041
1143.75,0.06153
1137.96,0.06164
1132.17,0.06082
1126.39,0.05973
1120.6,0.05694
1114.81,0.05706
1109.03,0.05777
1103.24,0.05928
1097.46,0.06048
1091.67,0.06075
1085.88,0.06139
1080.1,0.06157
1074.31,0.06213
1068.52,0.06154
1062.74,0.06116
1056.95,0.06038
1051.17,0.05890
1045.38,0.05716
1039.59,0.05402
1033.81,0.05242
1028.02,0.05150
1022.24,0.05228
1016.45,0.05461
1010.66,0.05792
1004.88,0.06050
999.09,0.06034
993.304,0.06117
987.518,0.06032
981.731,0.05788
975.945,0.05502
970.159,0.05350
964.373,0.05625
958.586,0.05996
952.8,0.06260
947.014,0.06321
941.228,0.06437
935.441,0.06532
929.655,0.06571
923.869,0.06483
918.083,0.06376
912.297,0.06452
906.51,0.06501
900.724,0.06606
894.938,0.06205
889.152,0.06042
883.365,0.05758
877.579,0.05578
871.793,0.05504
866.007,0.06154
860.22,0.06173
854.434,0.05909
848.648,0.05970
842.862,0.06045
837.075,0.06127
831.289,0.06061
825.503,0.05948
819.717,0.05768
813.931,0.05509
808.144,0.05351
802.358,0.05177
796.572,0.05211
790.786,0.05280
784.999,0.05424
779.213,0.05541
773.427,0.05410
767.641,0.05424
761.854,0.05528
756.068,0.05371
750.282,0.05410
744.496,0.05391
738.709,0.05424
732.923,0.05552
727.137,0.05634
721.351,0.05624
715.565,0.05324
709.778,0.05445
703.992,0.05568
698.206,0.05448
692.42,0.05288
686.633,0.05387
680.847,0.05242
675.061,0.05025
669.275,0.05025
663.488,0.05089
657.702,0.05236
651.916,0.05285
646.13,0.05291
640.343,0.05060
634.557,0.04951
628.771,0.04967
622.985,0.04636
617.198,0.04464
611.412,0.04762
605.626,0.04716
599.84,0.04582