File: 01_Data/Accent_Chair/Furniture_Calorimeter/Accent_Chair_R3.csv
Time (s),Convective HRR,TCPlume1,TCPlume2,TCPlume3,DPPlume1,DPPlume2,DPPlume3,HF1,HF2,HF3,HF4,HF5,HF6,RAD2,RAD1,Load Cell,Heat Release Rate,Total Heat Released
-120,0.0,-7.51964,-7.1177,10.2917,-0.00421275,-0.0224664,0.0199144,-0.849561,0.105729,-0.595332,0.28983,-0.226862,0.116465,0.447131,1.92317,26.071,0.0,0.0
-114,0.0,-7.06136,-7.08993,10.2424,0.0109787,0.0231047,0.0123188,-0.0471979,-0.792967,1.03328,0.28983,0.14809,-0.0249568,0.613177,1.92317,25.9256,0.0,0.0
-108,0.0,-6.87147,-7.01736,10.2369,-0.0497871,0.0458903,0.0199144,-0.849561,0.105729,-0.595332,1.15207,0.14809,0.116465,0.447131,1.92317,26.0917,0.0,0.0
-102,0.0,-7.31316,-7.02871,10.1875,-0.0725743,0.0231047,-0.0104678,0.755166,1.00442,1.03328,0.28983,0.14809,0.116465,0.613177,2.88169,26.1125,0.0,0.0
-96,0.0,-8.01807,-6.59858,10.4169,0.0185744,0.0534855,0.042701,-0.849561,0.105729,0.218973,1.15207,-0.226862,0.257887,0.447131,3.8402,26.0917,0.0,0.0
-90,0.0,-6.74343,-6.81107,10.2091,0.0109787,0.0534855,0.00472328,-0.0471979,-0.792967,-0.595332,-0.572413,0.14809,0.257887,0.613177,2.88169,26.0917,0.0,0.0
-84,0.0,-7.41983,-7.25272,9.89223,0.0489573,-0.083228,-0.0256589,-0.0471979,1.00442,-0.595332,-0.572413,-0.601814,0.116465,0.613177,3.8402,25.9048,0.0,0.0
-78,0.0,-7.69391,-7.29185,10.1981,0.0793402,-0.0680376,0.0502966,-0.0471979,-0.792967,-0.595332,-1.43466,-0.226862,-0.0249568,0.447131,2.88169,26.1125,0.0,0.0
-72,0.0,-8.13625,-6.99019,10.4928,-0.0573828,0.0231047,0.0351055,-1.65192,-0.792967,-1.40964,1.15207,-0.226862,-0.0249568,0.779224,2.88169,26.0917,0.0,0.0
-66,0.0,-7.50948,-7.53808,10.187,-0.0345956,-0.0224664,-0.0256589,-0.0471979,0.105729,-0.595332,0.28983,-0.226862,-0.166379,0.779224,4.79872,25.9256,0.0,0.0
-60,0.0,-7.48737,-7.47682,10.3232,0.0185744,0.0155095,-0.0788277,-0.0471979,0.105729,0.218973,-1.43466,-0.601814,-0.0249568,0.945271,1.92317,26.0917,0.0,0.0
-54,0.0,-7.21907,-7.4825,10.3177,0.0109787,0.0231047,0.0199144,0.755166,-0.792967,1.84758,0.28983,0.14809,0.116465,0.447131,2.88169,26.0917,0.0,0.0
-48,0.0,-7.22474,-7.29246,10.3504,0.0185744,0.0231047,-0.0180634,1.55753,0.105729,0.218973,-0.572413,0.14809,-0.166379,0.945271,3.8402,25.9464,0.0,0.0
-42,0.0,-7.47662,-7.38777,10.2191,0.056553,0.0458903,0.0123188,-0.0471979,-0.792967,-0.595332,0.28983,0.14809,-0.0249568,0.779224,1.92317,26.071,0.0,0.0
-36,0.0,-7.6446,-7.39913,10.3227,0.0261701,0.0155095,0.0578921,0.755166,1.90312,0.218973,-0.572413,0.14809,-0.0249568,0.613177,1.92317,26.0917,0.0,0.0
-30,0.0,-7.45451,-7.24825,10.2407,-0.0269999,-0.0148713,-0.0560411,1.55753,0.105729,-0.595332,-2.2969,-0.226862,0.116465,0.613177,2.88169,25.8841,0.29463,0.0
-24,0.0,-7.34844,-7.25961,10.0767,0.0261701,0.159818,0.0730832,-0.0471979,1.00442,-0.595332,0.28983,0.14809,-0.0249568,0.779224,1.92317,25.9256,0.0,0.0
-18,0.0,-7.62248,-6.94662,10.2296,0.0869359,-0.0756328,0.00472328,0.755166,0.105729,0.218973,0.28983,0.523043,-0.0249568,0.945271,3.8402,25.9048,0.0,0.0
-12,0.0,-7.46587,-6.712,10.3442,-0.0497871,-0.083228,-0.0712322,-0.0471979,0.105729,-1.40964,1.15207,0.14809,-0.0249568,0.779224,2.88169,26.0917,0.0,0.0
-6,0.0,-6.58889,-6.85199,9.8251,-0.0118085,-0.128799,-0.0560411,-0.0471979,0.105729,0.218973,0.28983,0.14809,-0.0249568,0.613177,2.88169,25.9256,0.0,0.0
0,0.0,-6.78435,-6.93021,9.8251,-0.0725743,-0.0376568,-0.0712322,-0.0471979,1.00442,-1.40964,-0.572413,-0.226862,-0.166379,0.447131,1.92317,25.9256,0.0,0.0
6,0.0,-7.65658,-7.13715,10.0052,-0.0345956,0.000319126,0.0578921,-0.0471979,1.90312,0.218973,0.28983,-0.601814,-0.0249568,0.447131,2.88169,26.071,0.0,0.0
12,0.0,-7.65658,-7.25454,10.1581,-0.00421275,-0.0148713,-0.0560411,-0.849561,-1.69166,1.03328,0.28983,-0.226862,0.116465,0.447131,3.8402,25.8841,0.0,0.0
18,0.0,-9.31508,-6.67919,10.7585,0.0109787,-0.0908231,0.111061,1.55753,0.105729,0.218973,-0.572413,0.14809,-0.166379,0.779224,2.88169,26.071,0.0,0.0
24,0.0,-7.56183,-7.62959,10.1741,-0.00421275,-0.0376568,-0.0256589,-0.849561,0.105729,1.03328,1.15207,0.14809,0.116465,0.779224,2.88169,26.0917,0.0,0.0
30,0.0,-7.91434,-7.62959,10.0594,0.0109787,0.0231047,0.0730832,0.755166,1.00442,1.03328,0.28983,0.14809,0.257887,0.945271,4.79872,25.9256,0.0,0.0
36,0.0,-6.94707,-7.3669,10.2013,-0.0118085,0.0231047,0.0123188,-0.0471979,1.90312,-0.595332,0.28983,0.523043,-0.0249568,0.613177,1.92317,26.071,0.0,0.0
42,0.0,-7.42228,-7.09865,10.1957,-0.0573828,0.0306999,-0.00287227,0.755166,1.00442,0.218973,0.28983,-0.226862,0.257887,0.447131,2.88169,25.9256,0.0,0.0
48,0.0,-7.28276,-7.11568,10.1026,0.0793402,0.0610806,0.0578921,-0.849561,0.105729,1.03328,-0.572413,0.523043,-0.3078,0.613177,2.88169,25.9048,0.0,0.0
54,0.0,-7.60161,-7.004,10.2118,0.00338297,-0.0300616,-0.04085,-0.849561,1.00442,-0.595332,0.28983,-0.226862,-0.0249568,0.613177,2.88169,25.9256,0.0,0.0
60,0.31955,-7.02024,-7.20529,10.0151,-0.102957,-0.0528472,-0.00287227,0.755166,-0.792967,-0.595332,1.15207,-0.226862,-0.166379,0.779224,2.88169,25.9048,0.0,0.0
66,0.58997,-6.64624,-7.22233,9.99843,0.0185744,-0.0376568,-0.0332544,0.755166,1.00442,0.218973,-0.572413,0.14809,-0.0249568,0.779224,3.8402,25.9256,0.0,0.0
72,0.0,-7.19376,-7.33974,9.88373,-0.0421914,0.0610806,-0.0104678,1.55753,1.00442,1.03328,-0.572413,0.523043,-0.166379,0.613177,3.8402,25.9464,0.0,0.00048116
78,0.0,-7.59087,-6.99327,10.1458,0.200872,0.0155095,-0.0864233,-0.0471979,1.00442,0.218973,-1.43466,0.523043,0.116465,0.613177,2.88169,26.0917,12.3475,0.0466954
84,0.0,-7.45132,-6.93207,10.1674,0.0109787,0.0914614,0.893402,0.755166,0.105729,0.218973,1.15207,-0.226862,0.116465,0.779224,2.88169,26.0502,11.06,0.115058
90,0.63489,-6.83667,-6.35708,11.341,0.117319,0.000319126,0.209803,1.55753,0.105729,1.03328,1.15207,0.14809,-0.0249568,0.613177,2.88169,25.9256,22.5889,0.227485
96,1.52483,-5.73728,-5.80475,11.8431,0.0869359,-0.113609,-0.10921,1.55753,0.105729,1.03328,0.28983,0.14809,-0.166379,0.779224,3.8402,26.1333,31.0689,0.410867
102,2.62753,-5.86002,-6.12272,11.6084,-0.00421275,-0.0376568,0.0123188,0.755166,0.105729,1.03328,0.28983,0.14809,-0.0249568,0.945271,2.88169,25.9256,27.2869,0.578803
108,6.79561,-5.01912,-5.5933,12.241,0.254042,0.121842,0.384501,0.755166,0.105729,-0.595332,-0.572413,0.14809,0.257887,0.779224,2.88169,26.071,38.2427,0.779038
114,10.5523,-3.39148,-3.30327,14.8299,0.360382,0.942123,1.38711,-0.0471979,0.105729,0.218973,-0.572413,0.14809,0.116465,0.447131,3.8402,25.7387,41.1292,0.997797
120,11.3453,-2.58854,-3.12055,15.2762,0.519892,0.00791431,0.627558,2.35989,0.105729,1.84758,0.28983,-0.226862,0.116465,0.779224,3.8402,25.7802,45.0485,1.25532
126,14.87,-1.32401,-0.658157,17.3977,1.37061,1.53455,1.59219,0.755166,1.00442,1.03328,-0.572413,-0.226862,0.116465,0.779224,2.88169,25.9256,54.8863,1.55932
132,16.883,-0.70726,0.0339295,17.2455,0.0869359,0.0306999,0.0199144,3.16226,1.00442,1.03328,-0.572413,0.14809,0.116465,0.613177,2.88169,25.7802,67.4487,1.92786
138,20.7803,-1.02108,-1.24185,17.0496,-0.0497871,0.175008,1.09089,2.35989,1.00442,1.84758,0.28983,0.14809,0.116465,0.613177,2.88169,25.7595,81.4742,2.3227
144,27.3472,-0.37765,-1.4074,16.5056,-0.0877657,-0.106014,-0.0560411,1.55753,0.105729,0.218973,-0.572413,0.14809,0.257887,0.945271,3.8402,25.7387,103.002,2.8446
150,31.3074,-0.729625,-1.79921,17.0331,0.740168,1.05605,0.240185,0.755166,1.90312,1.03328,0.28983,0.523043,0.399309,0.945271,4.79872,25.7595,146.452,3.58727
156,32.309,3.51216,1.99129,19.1516,0.588254,0.167413,0.483243,3.16226,1.90312,1.84758,-0.572413,0.897995,0.399309,0.613177,3.8402,25.7802,217.31,4.73563
162,49.5079,5.57943,5.8581,21.3534,0.930061,5.86381,2.17705,3.16226,1.00442,1.84758,0.28983,0.897995,0.682152,1.11132,6.71575,25.801,247.914,6.17282
168,65.0875,15.6526,15.397,27.0546,3.08725,2.32445,1.44028,5.56935,1.00442,3.47619,-0.572413,1.27295,0.54073,1.44341,5.75724,25.5726,334.888,7.90779
174,114.185,28.9368,26.9506,34.5629,1.42378,1.65607,0.0730832,7.17407,1.90312,1.84758,2.01432,2.02285,1.10642,1.44341,8.63279,25.3857,430.583,10.2572
180,138.561,29.4316,30.2329,40.2853,1.98587,2.57509,1.47826,7.17407,2.80182,3.47619,2.87656,1.6479,0.964996,1.44341,7.67427,25.4272,586.807,13.2914
186,164.323,41.0613,47.5716,56.0555,4.54563,6.39547,0.506029,8.7788,3.70051,4.29049,2.01432,2.02285,1.38926,1.94155,10.5498,25.3026,763.385,17.0809
192,207.577,54.4542,57.2297,65.8219,3.29233,1.95988,2.92141,11.1859,5.4979,5.1048,2.87656,2.77276,1.6721,2.43969,11.5083,24.9496,950.134,22.0209
198,287.939,74.5052,77.4871,89.4474,4.37852,4.65617,0.376905,16.8024,7.29529,7.54771,5.46329,4.64752,2.66206,3.26993,16.3009,24.7627,1169.69,28.7173
204,358.132,95.9756,102.428,103.096,5.41914,0.268793,2.99479,16.3448,7.79009,8.10083,7.08013,5.4047,3.36981,3.21033,17.9138,24.4809,1338.19,36.2709
210,472.482,110.839,126.584,138.205,3.01889,3.15992,3.43791,22.419,11.7888,10.8049,7.18777,6.89723,4.50054,4.76435,23.9691,24.0982,1473.83,44.4558
216,596.721,119.981,141.691,152.38,2.69986,1.87633,1.03012,22.419,11.7888,11.6192,8.91226,6.89723,4.78338,4.93039,22.052,23.7867,1391.2,53.1916
222,662.242,141.401,167.793,186.326,2.93533,5.05112,7.86611,31.245,15.3836,14.0621,9.7745,9.14695,6.33902,6.25877,30.6787,23.4544,1410.59,61.754
228,723.395,168.801,212.152,248.272,8.03966,6.57775,9.87893,37.6639,18.9783,17.3194,10.6367,10.6468,6.90471,7.089,33.5542,22.9145,1407.24,70.2667
234,777.361,179.368,237.881,298.895,3.10244,10.269,1.80487,38.4663,18.0796,14.8765,10.6367,9.89685,6.76329,6.75691,34.5127,22.4577,1635.71,78.9347
240,811.245,189.927,244.681,340.086,6.59647,7.6031,10.8132,40.071,18.0796,17.3194,12.3612,9.89685,6.76329,7.089,37.3883,22.1254,1161.13,86.6287
246,830.568,185.575,242.536,378.895,8.73087,8.48415,11.6639,44.0828,17.1809,17.3194,13.2235,10.2718,6.62187,6.75691,39.3053,21.7516,1014.9,92.9058
252,773.372,186.911,249.039,411.308,5.24443,14.3173,8.93708,44.0828,13.5862,14.0621,12.3612,9.5219,6.1976,6.42481,40.2638,21.2532,896.869,98.4997
258,689.904,171.131,236.527,408.117,6.08756,2.65864,5.38237,43.2804,13.5862,14.8765,13.2235,8.772,5.77334,5.42853,40.2638,20.9625,765.444,103.552
264,649.208,145.373,198.101,365.124,4.78109,4.04096,2.67076,30.4426,9.99138,9.99063,11.499,6.14733,4.07627,4.26621,29.7202,20.6095,741.956,108.101
270,576.241,124.82,172.438,336.672,3.8772,7.01068,10.8132,25.6284,8.19399,9.17632,8.91226,3.89761,2.9449,3.26993,23.9691,20.4641,674.544,112.449
276,551.001,118.212,163.787,320.516,11.3286,5.96254,8.42059,27.2332,6.3966,8.36202,8.91226,4.27257,2.9449,3.10388,23.0105,19.9242,695.738,116.742
282,536.57,114.473,157.038,309.869,8.75366,7.54234,4.23544,29.6403,8.19399,8.36202,10.6367,3.89761,3.08632,3.43597,25.8861,19.9657,536.482,120.243
288,494.785,111.797,153.354,299.688,9.52082,5.81064,3.77211,21.6166,5.4979,5.9191,8.91226,3.52266,2.80348,2.43969,19.1765,19.6127,404.823,123.104
294,539.611,108.194,147.247,287.104,1.70483,7.10182,6.98503,17.6048,4.59921,5.9191,5.46329,3.14771,2.09637,2.27365,18.218,19.2804,339.806,125.29
300,460.659,92.5022,127.915,267.284,4.73552,3.79791,2.9442,15.1977,1.90312,4.29049,5.46329,2.3978,1.81353,2.1076,13.4254,19.1143,328.712,127.254
306,392.284,77.5987,110.353,249.333,1.54531,4.88403,6.85591,13.593,4.59921,4.29049,4.60104,1.6479,1.38926,2.1076,12.4669,19.1351,302.994,129.152
312,310.643,69.5329,99.7723,233.361,4.09748,2.82573,2.46568,11.1859,3.70051,3.47619,2.87656,1.27295,1.38926,1.44341,9.5913,18.9274,308.375,130.963
318,292.63,63.9551,93.251,221.241,4.00633,1.70924,5.71657,10.3835,3.70051,3.47619,2.87656,2.02285,1.24784,1.7755,9.5913,18.8028,256.041,132.615
324,269.919,58.2099,85.8538,209.48,4.0519,4.50427,1.84285,9.58116,3.70051,2.66189,2.87656,1.6479,0.823574,1.44341,8.63279,18.6159,264.176,134.166
330,245.637,55.5529,81.2254,200.25,4.01392,4.41312,0.209803,7.97644,3.70051,1.84758,2.87656,1.6479,1.10642,1.44341,9.5913,18.4083,249.452,135.708
336,235.326,49.9737,73.044,189.364,1.09717,1.22314,1.53143,10.3835,2.80182,3.47619,3.7388,0.897995,0.823574,1.27736,10.5498,18.4498,249.487,137.213
342,236.726,45.7465,67.3542,181.07,1.27187,2.69661,2.9442,8.7788,2.80182,0.218973,2.01432,1.27295,0.823574,1.44341,8.63279,18.3252,255.286,138.729
348,226.594,43.5934,64.0874,174.809,1.96308,0.843385,8.04081,7.97644,1.90312,2.66189,3.7388,1.27295,1.24784,0.945271,8.63279,18.1175,255.205,140.214
354,213.666,42.4303,62.4238,167.931,2.00106,2.91687,4.22025,7.17407,2.80182,3.47619,2.87656,1.6479,1.10642,1.27736,8.63279,18.1383,292.781,141.798
360,217.369,41.9839,60.9538,161.874,1.88712,3.00042,3.44551,7.97644,1.90312,2.66189,2.87656,1.27295,0.823574,1.44341,8.63279,17.993,284.493,143.493
366,194.884,42.3877,59.5511,156.278,4.02152,3.83589,2.58721,10.3835,2.80182,3.47619,2.87656,1.27295,0.964996,1.11132,8.63279,17.7853,264.854,145.17
372,196.561,43.2374,60.5019,150.768,3.08725,4.4435,0.551603,9.58116,2.80182,2.66189,2.87656,1.27295,0.964996,1.60946,8.63279,17.8684,259.362,146.774
378,209.88,42.3343,56.7378,144.584,3.3455,4.05615,1.25039,8.7788,2.80182,3.47619,2.87656,1.6479,1.10642,1.11132,8.63279,17.6399,269.635,148.311
384,209.774,42.1855,58.9465,141.183,4.47726,6.30433,2.19224,8.7788,2.80182,1.84758,2.01432,0.897995,0.964996,1.11132,8.63279,17.4738,240.123,149.852
390,215.501,41.8452,58.0211,137.406,0.816125,1.40543,1.5846,8.7788,3.70051,2.66189,2.87656,1.27295,1.10642,1.44341,9.5913,17.5153,255.364,151.406
396,208.992,39.7915,53.0772,132.207,0.428743,2.20292,1.21242,9.58116,3.70051,2.66189,2.87656,1.27295,0.964996,1.44341,9.5913,17.2661,273.239,153.107
402,196.172,35.1973,50.3808,127.778,0.550275,2.90168,0.179421,7.17407,1.90312,3.47619,2.87656,1.6479,1.24784,1.27736,8.63279,16.9339,276.71,154.753
408,214.797,34.7161,48.1293,123.291,2.19855,2.33204,4.20506,10.3835,2.80182,2.66189,2.87656,1.6479,0.964996,1.44341,9.5913,17.1415,251.859,156.355
414,242.893,38.1713,52.9135,123.681,3.27714,1.74721,3.31638,9.58116,2.80182,2.66189,3.7388,1.6479,1.10642,1.27736,9.5913,16.9962,259.875,157.959
420,202.049,42.5304,59.4716,126.525,3.39867,4.73972,3.02775,8.7788,2.80182,2.66189,2.87656,1.6479,1.24784,1.27736,8.63279,16.8093,269.295,159.563
426,212.6,41.7438,57.0371,125.172,2.54795,4.21565,3.286,8.7788,4.59921,3.47619,3.7388,1.27295,1.10642,1.60946,8.63279,16.6639,282.046,161.243
432,216.719,43.0509,56.6374,122.373,1.02121,2.8713,3.42272,9.58116,1.90312,1.84758,1.15207,2.02285,0.823574,1.44341,9.5913,16.4563,281.436,162.909
438,208.709,42.4824,57.9154,121.017,2.92014,3.31182,3.69616,8.7788,3.70051,2.66189,2.87656,1.27295,0.964996,1.44341,7.67427,16.4563,307.704,164.811
444,204.74,40.9939,57.1791,118.89,1.42378,2.74978,0.756682,8.7788,2.80182,2.66189,1.15207,0.897995,0.964996,1.27736,7.67427,16.3317,277.778,166.561
450,197.757,40.5734,55.8423,115.898,5.32039,2.61306,4.29621,7.97644,1.00442,4.29049,2.87656,1.6479,1.10642,1.27736,5.75724,16.1448,259.587,168.159
456,209.07,43.9954,57.7206,115.898,2.68467,4.20046,4.00758,8.7788,1.90312,2.66189,2.87656,0.897995,0.823574,1.27736,7.67427,16.1448,242.945,169.659
462,212.938,40.717,55.9843,113.475,3.77846,5.90178,3.54425,7.97644,2.80182,4.29049,2.01432,1.6479,0.682152,1.11132,7.67427,15.9786,246.409,171.158
468,203.056,39.3218,54.5676,110.784,1.60608,1.46619,4.56965,6.37171,2.80182,1.84758,2.01432,0.897995,0.964996,1.11132,6.71575,15.7917,263.19,172.639
474,198.338,35.592,48.4034,105.637,0.329999,-0.478178,1.30356,7.17407,1.90312,1.03328,2.01432,0.897995,0.823574,0.945271,7.67427,15.8333,264.882,174.095
480,184.097,34.1638,46.1379,101.897,3.73288,5.3929,2.13907,7.17407,1.00442,1.84758,1.15207,0.523043,0.964996,0.779224,6.71575,15.6256,184.335,175.418
486,173.584,36.1103,51.3935,101.86,3.31512,2.69661,1.42509,7.17407,1.90312,1.03328,2.01432,1.27295,0.682152,1.11132,6.71575,15.6464,212.008,176.604
492,177.857,34.0834,46.5033,99.3807,2.04663,3.12954,3.81769,5.56935,1.90312,1.84758,2.01432,1.27295,0.682152,1.11132,7.67427,15.6256,235.599,177.92
498,157.31,33.3659,45.4966,96.6096,2.42642,3.52449,3.73414,6.37171,1.90312,1.03328,1.15207,0.897995,0.964996,1.11132,4.79872,15.4387,233.014,179.253
504,157.036,35.6131,46.2013,95.541,2.8138,4.6106,2.20743,7.17407,1.90312,1.03328,2.87656,0.523043,0.54073,1.11132,6.71575,15.3141,218.367,180.557
510,158.099,33.9976,44.4891,92.4064,0.367978,2.62825,4.60762,4.76698,1.90312,1.03328,2.01432,0.897995,0.682152,0.779224,4.79872,15.2934,223.873,181.866
516,164.451,34.1849,44.452,90.4203,3.14801,1.72443,2.40492,5.56935,1.00442,1.03328,1.15207,0.523043,0.682152,0.945271,6.71575,15.2934,222.182,183.238
522,154.474,33.7564,44.1758,89.1911,1.17312,1.94469,2.16945,4.76698,2.80182,1.84758,0.28983,1.27295,0.823574,1.11132,7.67427,15.1272,189.136,184.455
528,165.564,32.9745,41.3182,86.5145,3.01889,2.16495,1.94159,7.97644,2.80182,1.84758,2.01432,0.897995,0.823574,1.44341,6.71575,15.148,209.153,185.661
534,169.34,32.3687,39.8601,84.086,2.88216,1.93709,2.79988,5.56935,1.00442,1.84758,2.87656,0.897995,0.964996,0.779224,5.75724,14.9611,205.126,186.895
540,155.849,32.1811,40.9777,83.719,3.39108,2.79535,3.14928,6.37171,1.90312,1.03328,2.01432,0.897995,0.964996,0.945271,5.75724,14.8157,195.312,188.087
546,159.238,34.9497,44.8388,84.5579,3.78605,2.33204,4.45571,6.37171,1.00442,2.66189,1.15207,0.897995,0.682152,0.945271,7.67427,14.8157,219.427,189.321
552,150.598,35.356,45.4271,84.5526,2.32767,1.47379,2.63278,5.56935,1.00442,2.66189,1.15207,0.897995,0.823574,1.11132,5.75724,14.6288,208.416,190.582
558,152.185,35.575,46.3119,84.8409,2.93533,3.03839,2.46568,7.17407,2.80182,1.84758,2.01432,1.6479,0.823574,0.779224,6.71575,14.6288,195.249,191.878
564,153.6,38.9693,48.6773,85.3495,3.04927,1.12441,2.82267,6.37171,2.80182,2.66189,2.01432,0.897995,0.682152,1.27736,6.71575,14.4419,209.895,193.106
570,166.038,33.6542,43.8145,82.5547,2.54795,3.15232,1.88842,6.37171,1.90312,2.66189,2.87656,1.27295,0.964996,0.945271,7.67427,14.5042,228.331,194.358
576,157.161,36.0076,45.5169,81.0818,2.75303,3.36499,2.22262,6.37171,1.90312,1.84758,2.87656,1.27295,0.682152,0.779224,6.71575,14.3381,230.491,195.719
582,166.118,31.6493,39.854,77.66,1.65165,-0.045252,2.30617,6.37171,2.80182,3.47619,3.7388,0.897995,0.682152,1.11132,5.75724,14.2966,233.668,197.103
588,174.264,30.0011,38.8526,77.5553,3.58856,1.56493,2.64038,6.37171,1.90312,1.84758,2.01432,0.897995,0.823574,1.11132,6.71575,14.172,221.625,198.447
594,179.236,35.4301,44.7956,81.4693,4.0595,5.05112,1.85044,5.56935,1.00442,2.66189,2.87656,0.523043,0.823574,1.11132,4.79872,13.9643,262.102,199.848
600,171.153,38.6437,45.612,80.4788,3.86201,4.57262,3.68856,6.37171,1.00442,2.66189,1.15207,0.897995,0.964996,0.945271,6.71575,14.0059,230.236,201.325
606,173.168,36.7819,42.9808,78.2468,5.88247,4.25363,1.43269,7.17407,1.90312,2.66189,2.01432,1.27295,0.823574,0.945271,6.71575,13.7982,253.836,202.787
612,175.926,40.3161,49.792,79.9967,4.17344,1.90671,2.07831,5.56935,1.90312,1.84758,2.01432,0.523043,0.964996,1.44341,8.63279,13.7982,248.585,204.258
618,179.368,36.0661,45.0554,78.0581,0.80853,1.04086,1.60738,6.37171,2.80182,0.218973,2.01432,0.897995,0.682152,1.11132,6.71575,13.6528,241.75,205.739
624,191.224,34.708,43.4849,76.8006,1.59848,0.486411,1.16684,6.37171,1.00442,3.47619,2.01432,0.897995,0.823574,1.11132,6.71575,13.4452,236.04,207.187
630,187.82,33.3966,40.6947,76.3605,3.67971,7.01827,4.1291,5.56935,1.90312,2.66189,2.87656,0.897995,0.54073,1.11132,7.67427,13.4867,211.472,208.466
636,182.566,36.1192,42.805,76.8999,3.1632,2.47635,1.85044,5.56935,2.80182,2.66189,2.01432,0.897995,0.682152,1.27736,6.71575,13.279,230.139,209.843
642,173.543,34.4724,41.4286,78.1835,1.23389,1.81557,3.26321,6.37171,1.90312,1.84758,2.87656,1.27295,0.823574,1.11132,7.67427,13.1129,253.655,211.288
648,169.162,33.2466,44.0422,83.1465,2.03904,4.57262,4.19746,6.37171,1.90312,2.66189,1.15207,1.6479,0.823574,1.11132,6.71575,13.1337,263.997,212.869
654,176.557,36.0389,45.4366,81.0024,3.23157,4.30679,1.59219,6.37171,1.90312,3.47619,0.28983,0.897995,0.823574,1.44341,7.67427,13.1337,232.89,214.327
660,170.614,37.0483,44.9913,80.6723,1.70483,6.49421,4.89625,6.37171,1.00442,1.84758,1.15207,0.897995,0.682152,1.11132,5.75724,12.9676,233.142,215.737
666,173.876,37.8218,46.2418,79.8913,4.98618,0.813004,0.194612,7.17407,1.90312,3.47619,2.87656,0.897995,0.54073,1.27736,7.67427,12.8222,263.158,217.196
672,169.129,36.3646,43.3464,78.7176,2.71506,7.01068,3.51387,6.37171,2.80182,1.84758,1.15207,0.897995,0.823574,1.11132,5.75724,12.8222,233.427,218.683
678,171.979,37.923,46.2681,79.1471,0.557871,2.21052,2.92141,7.17407,1.90312,1.84758,2.87656,1.27295,0.823574,1.11132,7.67427,12.8014,233.944,220.197
684,170.962,37.9977,44.4871,77.7901,2.17576,1.05605,2.85305,6.37171,2.80182,2.66189,1.15207,1.27295,0.823574,1.11132,7.67427,12.6561,243.35,221.608
690,186.557,35.456,44.1158,77.9001,3.14042,3.44854,2.24541,6.37171,1.90312,1.03328,1.15207,0.897995,0.682152,1.11132,6.71575,12.8222,250.657,223.093
696,192.611,32.7529,38.6009,74.2276,0.649019,1.02567,0.422478,7.97644,0.105729,2.66189,2.87656,0.897995,0.682152,1.27736,5.75724,12.5107,245.047,224.552
702,177.122,28.053,34.6384,71.1103,0.793338,1.61809,0.187016,6.37171,2.80182,2.66189,2.87656,1.27295,0.823574,1.27736,7.67427,12.303,223.274,225.944
708,181.698,29.1343,36.9843,72.4934,2.44161,3.64601,3.65818,5.56935,3.70051,1.84758,2.87656,1.27295,0.54073,1.11132,6.71575,12.3238,209.08,227.248
714,180.08,31.1651,39.0751,71.6132,2.65429,2.49154,1.78968,7.17407,1.90312,2.66189,2.87656,1.27295,0.54073,1.27736,7.67427,12.1161,256.542,228.559
720,175.369,30.5583,39.1069,71.9746,1.3858,1.10922,3.6278,6.37171,1.90312,2.66189,1.15207,0.897995,0.682152,1.11132,6.71575,12.1577,197.163,229.786
726,161.492,31.7552,38.9523,71.3458,1.3858,1.1396,1.11367,7.17407,1.90312,1.84758,2.01432,1.27295,0.823574,1.27736,7.67427,11.9915,207.844,231.024
732,168.503,29.2041,35.2211,69.7371,0.846508,4.72453,3.36955,5.56935,1.00442,2.66189,2.01432,1.27295,0.54073,1.11132,6.71575,11.8047,202.695,232.268
738,150.837,33.0148,37.4055,69.3122,5.87488,1.22314,2.56442,6.37171,1.90312,0.218973,1.15207,0.897995,0.682152,1.11132,7.67427,11.8462,197.295,233.498
744,172.396,31.8624,34.4239,67.7084,1.83395,2.72699,0.665536,5.56935,1.90312,1.03328,2.01432,0.897995,0.682152,0.779224,5.75724,11.6385,202.795,234.716
750,161.088,34.3212,38.9306,71.2878,0.557871,1.97507,2.45808,6.37171,1.00442,1.84758,2.01432,1.27295,0.823574,1.27736,7.67427,11.6385,214.251,235.95
756,154.273,33.92,41.5497,72.252,4.91782,3.12194,1.72891,5.56935,1.90312,1.84758,2.01432,0.14809,0.682152,0.945271,6.71575,11.4932,238.094,237.315
762,158.951,33.3148,39.4582,71.3298,0.838913,0.668696,2.30617,7.17407,2.80182,2.66189,2.01432,1.27295,0.823574,1.11132,6.71575,11.4724,199.793,238.605
768,157.788,34.2838,40.1237,70.3341,4.75071,3.76753,1.19722,7.17407,1.90312,1.84758,1.15207,1.27295,0.682152,1.11132,5.75724,11.327,205.496,239.862
774,174.753,31.3523,36.7594,68.3109,0.535084,2.02064,2.83027,5.56935,1.00442,1.84758,1.15207,1.27295,0.682152,1.11132,7.67427,11.327,221.893,241.172
780,159.307,26.5707,35.4504,66.9897,2.24412,3.24346,0.202207,5.56935,1.00442,1.03328,1.15207,1.27295,0.823574,0.945271,6.71575,11.1609,230.888,242.519
786,161.893,29.2678,37.1542,67.2307,5.25203,5.75747,3.15687,6.37171,2.80182,1.84758,2.87656,1.27295,0.682152,1.11132,8.63279,11.1401,227.013,243.912
792,170.508,32.7999,41.3311,70.3861,0.945253,4.86884,3.77211,6.37171,2.80182,2.66189,2.01432,0.897995,0.682152,1.27736,7.67427,10.9948,235.919,245.325
798,164.787,34.0052,44.5708,73.4356,4.20382,1.73962,2.87584,5.56935,3.70051,2.66189,0.28983,1.27295,0.682152,1.11132,7.67427,10.9948,235.57,246.82
804,154.786,37.0734,44.4595,72.5187,0.595849,0.569958,3.05813,6.37171,0.105729,2.66189,2.01432,1.27295,0.823574,0.945271,6.71575,10.8079,248.724,248.268
810,161.458,36.4326,44.5283,73.3936,4.03671,2.97004,2.15426,6.37171,1.90312,2.66189,1.15207,0.897995,0.682152,1.11132,5.75724,10.8079,251.332,249.72
816,173.064,39.1158,45.0055,73.2782,3.96075,2.43837,1.97957,6.37171,1.00442,1.03328,0.28983,0.897995,0.682152,1.11132,8.63279,10.6625,229.648,251.148
822,177.958,39.2968,44.0348,71.7692,3.20118,2.85611,1.71372,6.37171,1.90312,2.66189,2.01432,1.27295,0.823574,1.27736,7.67427,10.4964,228.213,252.512
828,163.682,37.1319,41.6181,70.5222,2.53276,1.17757,3.56703,6.37171,1.90312,2.66189,0.28983,0.897995,0.54073,0.945271,7.67427,10.4756,216.746,253.819
834,165.78,38.1348,45.2174,74.111,2.9961,4.02577,0.16423,6.37171,1.90312,2.66189,1.15207,1.27295,0.54073,1.27736,6.71575,10.4964,242.101,255.115
840,175.707,36.7473,41.9422,73.4456,0.899678,3.04599,1.2352,6.37171,1.90312,1.84758,2.87656,0.897995,0.682152,1.11132,7.67427,10.3303,218.816,256.385
846,174.636,34.8394,40.2294,71.3184,3.07965,1.21555,1.19722,6.37171,2.80182,1.03328,1.15207,1.27295,0.823574,1.27736,5.75724,10.268,214.014,257.659
852,165.196,33.5602,40.3358,71.4231,3.19359,1.451,3.54425,5.56935,1.00442,2.66189,1.15207,1.27295,1.10642,1.11132,8.63279,10.1641,204.202,258.925
858,163.221,34.9354,40.5112,71.8893,3.5202,4.98276,2.50366,6.37171,1.90312,1.84758,2.01432,0.897995,0.823574,1.11132,7.67427,9.95647,196.017,260.105
864,164.756,35.7642,40.4794,71.4545,4.62918,1.34467,0.498434,6.37171,1.90312,1.84758,1.15207,0.523043,0.823574,1.11132,7.67427,9.998,203.877,261.285
870,162.81,33.1798,36.4488,68.9233,2.52516,0.410459,0.855424,4.76698,1.90312,2.66189,2.01432,0.523043,0.823574,1.11132,6.71575,10.0188,221.755,262.561
876,152.782,34.6678,38.7162,70.7102,1.2187,1.28391,2.75431,6.37171,1.90312,0.218973,2.01432,0.523043,0.682152,1.27736,6.71575,9.76957,218.105,263.935
882,149.552,32.0589,36.2666,69.4416,1.06678,2.0814,0.0351055,6.37171,1.90312,2.66189,1.15207,0.523043,0.823574,0.945271,5.75724,9.79034,216.611,265.21
888,146.187,31.2116,37.7776,69.4577,3.3455,3.09156,0.809851,7.17407,2.80182,1.84758,3.7388,1.27295,0.682152,1.27736,6.71575,9.83187,210.569,266.511
894,181.708,31.2867,35.9089,67.2927,2.09221,2.98523,1.60738,5.56935,0.105729,2.66189,1.15207,1.6479,0.54073,0.945271,6.71575,9.68651,209.669,267.8
900,158.873,32.5898,39.2595,69.9239,1.05159,2.30926,2.86824,6.37171,2.80182,3.47619,2.01432,1.27295,0.682152,1.11132,7.67427,9.64498,231.943,269.058
906,153.532,29.7775,34.7807,66.4799,0.793338,0.691481,4.06834,4.76698,1.90312,1.03328,1.15207,0.523043,0.823574,0.945271,5.75724,9.998,243.923,270.511
912,150.315,26.8657,34.8447,67.9373,3.50501,1.38264,5.74696,4.76698,1.90312,0.218973,2.01432,1.6479,0.823574,1.27736,5.75724,9.12582,244.803,271.978
918,150.273,26.677,36.2292,69.0381,1.48455,2.10419,3.29359,3.96462,0.105729,1.03328,1.15207,1.27295,0.823574,0.945271,5.75724,9.14659,253.818,273.521
924,157.532,29.3416,37.5637,69.0641,1.72002,3.15992,1.36433,2.35989,1.90312,2.66189,1.15207,1.6479,0.964996,1.11132,4.79872,9.18812,225.257,274.996
930,152.926,28.9652,36.8165,69.7245,3.11763,2.25609,1.4023,4.76698,1.90312,0.218973,1.15207,1.27295,0.823574,1.44341,5.75724,9.14659,203.418,276.293
936,177.859,33.2916,39.9197,72.224,2.50238,6.10685,3.05054,3.96462,2.80182,1.03328,1.15207,0.523043,0.823574,1.11132,6.71575,8.98046,217.133,277.6
942,164.126,31.4096,39.0567,71.962,1.9251,0.980099,1.26558,3.16226,1.00442,2.66189,0.28983,0.897995,1.10642,1.27736,5.75724,9.10506,199.59,278.84
948,157.121,31.1412,37.5583,71.1497,0.922466,2.0814,1.61498,3.96462,1.00442,1.03328,0.28983,0.523043,0.823574,1.27736,4.79872,8.8351,184.85,279.946
954,162.423,29.6694,37.254,70.3374,2.69227,2.25609,3.61261,3.96462,1.00442,1.03328,2.01432,1.27295,0.823574,1.11132,6.71575,8.81433,223.353,281.099
960,149.61,28.5023,36.0579,69.567,2.00106,1.37505,1.37952,2.35989,1.90312,1.84758,2.01432,0.897995,0.682152,1.11132,4.79872,8.66897,146.103,282.112
966,147.736,26.5309,34.1003,68.1254,2.56314,2.92447,2.4277,3.16226,1.00442,1.03328,1.15207,0.897995,0.399309,1.44341,4.79872,8.81433,151.991,283.011
972,149.588,27.3608,34.0629,67.2447,1.68204,2.97004,4.53926,4.76698,1.00442,0.218973,1.15207,0.897995,0.823574,0.945271,5.75724,8.66897,157.905,283.962
978,131.958,27.7001,32.563,65.8131,0.983231,0.364888,0.316141,2.35989,1.00442,1.84758,1.15207,0.523043,0.823574,0.945271,4.79872,8.68974,158.115,284.934
984,120.619,24.4857,30.0028,63.6777,1.37821,3.77513,0.733896,1.55753,1.00442,1.84758,1.15207,1.27295,0.54073,0.945271,3.8402,8.50284,169.187,285.916
990,127.751,24.0209,31.3076,64.5118,1.43138,1.47379,0.741491,3.16226,1.00442,1.84758,2.01432,1.6479,0.54073,0.945271,4.79872,8.31595,158.162,286.921
996,127.593,24.0154,29.836,62.8533,0.550275,-0.143989,0.961762,2.35989,1.00442,1.03328,2.87656,0.523043,0.399309,1.11132,4.79872,8.48207,173.331,287.926
1002,121.369,22.8911,31.2003,63.6356,0.686998,1.20036,2.90622,3.96462,1.00442,1.84758,1.15207,0.897995,0.682152,1.11132,5.75724,8.33671,158.51,288.924
1008,117.395,23.41,30.4753,63.2208,1.62127,1.99785,0.551603,2.35989,1.90312,1.03328,2.01432,0.523043,0.823574,1.27736,4.79872,8.31595,170.136,289.947
1014,133.818,21.0177,29.1531,62.0762,0.633828,1.57252,1.31116,2.35989,1.90312,1.03328,2.01432,1.27295,0.682152,1.11132,4.79872,8.19135,170.523,290.939
1020,125.002,19.9119,28.4698,60.9679,2.17576,4.30679,1.82006,0.755166,1.90312,1.03328,1.15207,0.523043,0.682152,1.27736,5.75724,8.14982,157.069,291.909
1026,118.076,21.0936,28.6259,60.9733,0.762955,0.471221,3.43031,3.16226,1.00442,0.218973,2.01432,0.897995,0.54073,0.945271,3.8402,8.17058,167.69,292.88
1032,113.636,20.3618,27.4844,60.0063,1.66685,1.37505,0.680727,3.96462,0.105729,0.218973,0.28983,0.897995,0.682152,1.11132,5.75724,8.00445,163.699,293.941
1038,113.786,17.9474,25.9162,59.0658,2.06942,1.44341,2.0935,3.96462,2.80182,1.03328,1.15207,0.897995,0.682152,0.779224,4.79872,7.98369,159.826,295.033
1044,104.864,17.094,25.7109,58.7553,1.73521,1.16998,1.91121,3.16226,2.80182,1.84758,1.15207,0.14809,0.682152,1.44341,2.88169,7.96292,166.762,296.01
1050,108.584,17.7351,27.1396,59.0811,3.39867,2.79535,2.66316,1.55753,1.00442,1.03328,2.87656,0.897995,0.54073,1.11132,3.8402,7.96292,148.713,296.979
1056,113.01,18.4139,27.4735,59.1126,2.79101,2.8713,1.19722,3.16226,1.90312,1.84758,1.15207,1.27295,0.54073,1.27736,3.8402,7.81756,157.623,297.926
1062,108.557,20.4211,27.8073,57.8189,1.42378,3.38777,-0.124401,3.16226,1.00442,1.03328,2.87656,0.523043,0.54073,1.11132,4.79872,7.6722,162.602,298.9
1068,118.096,20.4701,27.2527,58.1978,1.33263,1.32188,2.10109,2.35989,1.90312,1.84758,1.15207,0.897995,0.54073,0.779224,5.75724,7.65143,147.807,299.809
1074,106.304,20.5294,29.2331,59.0283,1.87193,2.47635,3.1113,3.16226,0.105729,0.218973,2.01432,0.897995,0.399309,0.945271,4.79872,7.65143,156.139,300.699
1080,115.68,19.1572,26.8536,57.5504,2.92774,2.5523,1.83525,3.96462,1.00442,0.218973,0.28983,0.523043,0.682152,1.27736,5.75724,7.4853,128.744,301.498
1086,109.553,19.5046,27.5379,57.924,4.12786,1.83076,0.870615,1.55753,1.90312,1.84758,0.28983,1.27295,0.54073,0.779224,4.79872,7.6722,152.305,302.328
1092,103.471,19.1841,26.3143,57.0609,0.504701,1.33707,2.23022,3.16226,0.105729,1.03328,2.01432,-0.226862,0.54073,0.945271,5.75724,7.69296,137.875,303.195
1098,104.147,17.3215,24.3497,56.1029,0.535084,3.28144,1.33394,3.16226,1.00442,1.03328,1.15207,0.897995,0.682152,0.779224,4.79872,7.4853,138.351,303.945
1104,101.802,16.9411,24.6144,56.1766,0.595849,3.99539,2.2682,2.35989,1.00442,0.218973,-0.572413,0.523043,0.399309,1.27736,5.75724,7.31917,126.849,304.732
1110,94.8614,15.0372,24.6522,55.5132,1.00602,2.05862,1.76689,2.35989,1.90312,0.218973,-0.572413,1.27295,0.54073,0.945271,3.8402,7.33994,128.674,305.506
1116,96.6594,16.8214,23.8525,54.549,1.17312,3.99539,3.286,3.96462,1.00442,0.218973,2.01432,0.523043,0.54073,0.945271,3.8402,7.33994,132.689,306.335
1122,98.6619,16.4297,22.9332,54.0218,0.557871,1.38264,0.323736,2.35989,1.00442,0.218973,2.01432,0.897995,0.54073,0.945271,3.8402,7.13228,120.662,307.073
1128,101.545,14.2638,21.9159,53.2153,1.17312,1.95988,2.62519,3.96462,1.00442,1.03328,1.15207,1.27295,0.399309,1.11132,3.8402,7.13228,132.059,307.809
1134,107.849,13.4574,22.1378,53.8374,0.854104,2.46876,1.69093,3.16226,1.00442,1.03328,2.01432,0.897995,0.54073,0.945271,3.8402,7.13228,130.858,308.613
1140,89.0288,13.3375,20.2362,52.1337,0.436339,0.448435,0.908593,2.35989,0.105729,-0.595332,2.01432,1.27295,0.54073,0.945271,3.8402,7.15304,136.83,309.402
1146,84.9465,11.8109,18.033,50.3597,0.504701,0.0458903,1.97197,3.16226,1.00442,1.84758,0.28983,0.897995,0.399309,1.11132,4.79872,7.00768,147.385,310.214
1152,88.3675,11.6088,16.5383,49.0541,0.573062,2.69661,2.46568,2.35989,1.00442,1.84758,1.15207,0.14809,0.682152,0.945271,5.75724,6.96615,153.986,311.146
1158,92.6696,11.4887,18.4346,49.8998,1.78838,3.14473,1.56941,1.55753,1.00442,1.03328,2.01432,1.27295,0.682152,1.11132,3.8402,6.98691,169.569,312.167
1164,91.1192,12.5306,19.4335,50.0955,1.68963,1.34467,0.384501,2.35989,1.90312,0.218973,1.15207,0.523043,0.399309,0.945271,3.8402,7.00768,159.429,313.16
1170,91.5658,12.2086,19.7207,49.9314,1.82636,3.25106,2.32136,2.35989,1.00442,1.03328,1.15207,0.523043,0.54073,0.779224,4.79872,6.84155,134.764,314.013
1176,107.675,14.2305,21.0488,50.634,2.4644,2.50673,1.96437,3.16226,0.105729,1.03328,1.15207,0.897995,0.399309,0.945271,3.8402,6.82079,133.052,314.85
1182,101.031,16.2117,21.5796,50.671,0.208468,1.01807,2.55683,3.16226,1.00442,1.03328,1.15207,-0.226862,0.54073,1.11132,2.88169,6.82079,152.498,315.679
1188,92.3579,15.3572,20.7288,50.2111,2.22893,0.987694,0.847829,2.35989,0.105729,1.84758,0.28983,0.523043,0.399309,0.945271,4.79872,6.67542,151.46,316.566
1194,93.3719,14.1432,19.2919,48.9215,0.23885,1.42821,0.338927,2.35989,1.90312,1.84758,2.01432,0.523043,0.116465,1.27736,4.79872,6.67542,178.283,317.522
1200,84.5967,11.69,19.1289,49.6139,1.99346,1.64088,0.544007,3.16226,0.105729,1.84758,0.28983,0.14809,0.54073,1.11132,3.8402,6.65466,123.535,318.398
1206,83.7383,11.9629,19.4383,49.1752,0.314808,-0.189561,1.59219,3.96462,1.90312,1.84758,0.28983,0.897995,0.823574,1.11132,5.75724,6.61312,126.96,319.148
1212,86.1875,11.581,19.5142,49.9152,0.519892,0.562363,2.6024,3.16226,0.105729,1.84758,0.28983,0.897995,0.682152,0.945271,2.88169,6.63389,136.624,319.95
1218,78.642,9.97094,17.7226,48.6146,0.975636,0.744648,0.711109,1.55753,0.105729,1.84758,1.15207,0.523043,0.54073,0.945271,3.8402,6.53006,135.416,320.797
1224,77.8569,10.5275,15.346,46.338,0.481914,0.349698,0.627558,2.35989,1.00442,1.03328,1.15207,0.14809,0.399309,0.945271,3.8402,6.48853,135.653,321.644
1230,75.8962,10.5386,15.0523,46.1263,0.261638,3.3422,0.900998,3.16226,1.00442,1.03328,2.87656,0.14809,0.54073,0.945271,2.88169,6.30163,147.809,322.486
1236,77.3846,10.7949,14.9269,45.7445,1.60608,1.50417,1.89601,2.35989,0.105729,1.03328,1.15207,0.897995,0.54073,1.27736,2.88169,6.48853,170.636,323.441
1242,83.0231,10.4455,14.9975,45.2938,0.390765,1.37505,2.83786,2.35989,0.105729,1.03328,0.28983,0.14809,0.964996,1.11132,4.79872,6.48853,129.085,324.329
1248,81.3772,10.9366,16.287,45.9563,0.580658,1.53455,1.25039,3.16226,1.90312,1.03328,-0.572413,0.897995,0.54073,0.945271,4.79872,6.3224,131.114,325.122
1254,87.4106,11.624,16.4773,45.6224,2.06182,0.349698,0.217399,3.16226,0.105729,1.03328,1.15207,0.897995,0.682152,0.945271,4.79872,6.3224,128.444,325.888
1260,80.776,10.096,15.7539,44.8058,1.60608,1.42062,3.30879,3.16226,1.00442,1.84758,1.15207,0.523043,0.399309,0.945271,4.79872,6.2601,137.122,326.696
1266,76.8723,10.3197,16.5479,45.5799,0.990827,1.47379,1.09089,2.35989,1.00442,1.03328,0.28983,0.523043,0.399309,0.779224,3.8402,6.34317,134.917,327.504
1272,71.5061,10.2815,15.6341,45.0231,1.15034,2.089,1.63777,1.55753,1.00442,1.03328,1.15207,0.897995,0.257887,0.779224,3.8402,6.17704,142.861,328.315
1278,73.3034,9.1619,14.7467,44.6782,0.930061,1.70164,1.69853,2.35989,1.90312,1.03328,1.15207,0.897995,0.54073,1.11132,5.75724,6.15627,131.309,329.181
1284,77.1828,11.0671,15.3889,43.967,2.49478,1.69405,1.83525,2.35989,0.105729,1.03328,0.28983,0.14809,0.54073,1.27736,5.75724,6.15627,133.443,329.985
1290,75.3123,12.4473,16.4227,44.1582,1.49974,1.04086,1.59219,2.35989,1.00442,1.03328,1.15207,0.14809,0.682152,1.11132,5.75724,6.1978,124.457,330.775
1296,75.8351,11.4817,16.6399,44.3702,1.68204,2.2485,2.29858,2.35989,1.00442,1.03328,0.28983,0.523043,0.399309,1.11132,4.79872,6.17704,131.636,331.55
1302,72.2728,12.2071,16.8683,44.4074,0.246446,2.74978,2.57961,2.35989,-0.792967,1.84758,0.28983,0.897995,0.682152,0.779224,3.8402,5.99014,115.189,332.286
1308,69.7976,10.947,15.9547,43.6272,1.10476,0.797814,1.96437,2.35989,1.00442,1.03328,0.28983,0.14809,0.682152,0.945271,5.75724,6.03167,111.18,332.959
1314,75.4222,9.67483,14.915,43.765,0.550275,0.949718,1.68334,3.16226,0.105729,1.03328,1.15207,0.523043,0.399309,1.27736,2.88169,5.99014,125.839,333.632
1320,72.1303,9.1723,14.757,43.3136,0.375573,0.349698,0.399692,2.35989,1.00442,0.218973,0.28983,0.897995,0.399309,0.779224,4.79872,5.99014,107.218,334.317
1326,68.005,9.37458,14.0438,43.0269,1.97068,2.34723,0.680727,2.35989,0.105729,1.84758,0.28983,0.523043,0.54073,0.945271,3.8402,6.05244,98.499,334.95
1332,65.5071,10.4829,14.5776,42.6922,1.27187,0.866171,1.50105,-0.0471979,1.00442,0.218973,1.15207,0.897995,0.682152,0.779224,3.8402,5.80325,100.572,335.524
1338,76.1338,9.47256,14.8277,42.304,1.17312,2.27128,1.18963,3.16226,1.00442,1.84758,1.15207,0.523043,0.399309,0.945271,4.79872,5.82401,105.807,336.143
1344,75.608,10.0403,15.0508,42.1125,1.28706,0.987694,1.36433,3.16226,2.80182,0.218973,1.15207,0.523043,0.399309,0.945271,1.92317,5.67865,106.152,336.759
1350,72.6967,9.23762,14.2123,41.3308,1.12755,0.524387,0.58958,1.55753,0.105729,1.03328,2.01432,1.27295,0.54073,0.945271,3.8402,5.80325,100.063,337.341
1356,76.2079,9.87632,15.0778,41.6923,0.542679,2.49914,3.09611,1.55753,1.00442,1.03328,1.15207,0.523043,0.257887,0.945271,3.8402,5.63712,104.888,337.967
1362,68.9715,8.49441,13.738,41.8358,0.170489,1.30669,3.08851,2.35989,1.00442,1.84758,0.28983,0.523043,0.54073,0.779224,4.79872,5.63712,115.355,338.665
1368,66.4675,8.04103,14.3537,41.9528,1.36302,0.919337,0.992144,2.35989,1.00442,0.218973,1.15207,0.523043,0.682152,0.779224,4.79872,5.67865,123.815,339.363
1374,71.9729,9.25915,15.7199,42.8031,0.945253,1.16238,1.84285,3.16226,2.80182,-0.595332,1.15207,0.523043,0.54073,1.11132,4.79872,5.65788,124.529,340.101
1380,70.0835,9.67408,14.8,41.7931,0.140106,1.51936,0.733896,2.35989,1.90312,0.218973,-0.572413,0.14809,0.54073,0.945271,4.79872,5.49175,132.09,340.873
1386,68.8438,10.2418,14.6038,41.8249,1.40859,2.61306,1.66055,3.16226,1.00442,-0.595332,1.15207,0.14809,0.54073,0.945271,5.75724,5.63712,135.437,341.66
1392,75.0837,10.1654,14.7944,42.3087,1.49974,1.51936,2.0935,1.55753,1.00442,0.218973,1.15207,0.14809,0.257887,0.945271,4.79872,5.49175,125.229,342.473
1398,73.2664,11.1094,15.393,41.963,0.998423,1.73202,3.42272,3.16226,1.00442,0.218973,1.15207,0.897995,0.54073,0.613177,4.79872,5.49175,149.344,343.375
1404,68.9753,10.842,16.4973,42.9302,1.15793,2.68902,1.82765,3.16226,1.00442,0.218973,1.15207,0.897995,0.399309,0.945271,3.8402,5.30486,147.317,344.28
1410,70.1471,11.7968,16.345,42.7071,0.573062,0.42565,0.536411,1.55753,1.00442,0.218973,2.01432,1.27295,0.399309,0.945271,3.8402,5.49175,140.59,345.126
1416,76.7163,11.5184,16.4862,42.5474,1.46176,3.6688,1.65296,1.55753,1.00442,1.84758,0.28983,1.27295,0.399309,0.945271,3.8402,5.34639,127.34,345.953
1422,74.6035,12.4672,16.6329,42.2444,1.15034,0.516792,0.764278,3.16226,0.105729,-0.595332,0.28983,0.523043,0.54073,0.945271,5.75724,5.34639,131.877,346.721
1428,73.6906,11.5184,15.2295,41.431,1.13515,1.14719,2.41251,3.16226,1.00442,0.218973,0.28983,0.523043,0.54073,0.945271,3.8402,5.32563,129.561,347.531
1434,70.7139,8.98519,14.113,41.1967,0.13251,0.987694,0.954166,3.16226,0.105729,-1.40964,1.15207,0.523043,0.399309,0.945271,3.8402,5.34639,150.515,348.388
1440,66.3287,8.9581,14.5816,41.9149,1.044,1.43581,0.878211,3.16226,1.90312,0.218973,2.01432,0.523043,0.399309,0.945271,3.8402,5.34639,121.659,349.164
1446,71.6249,11.2343,15.8985,42.0475,1.19591,2.33964,1.50864,2.35989,1.00442,0.218973,1.15207,0.897995,0.54073,0.613177,3.8402,5.32563,111.578,349.833
1452,74.1378,10.2028,14.0694,40.9678,0.140106,0.144628,0.308545,3.16226,1.00442,0.218973,2.87656,-0.226862,0.399309,1.27736,3.8402,5.18026,108.95,350.496
1458,59.6753,9.47105,13.6443,40.1799,0.489509,0.600339,0.361714,1.55753,1.00442,-0.595332,0.28983,0.897995,0.54073,0.613177,3.8402,5.20103,90.0472,351.057
1464,59.2426,8.32953,11.8563,39.4023,0.13251,1.88393,0.688322,1.55753,1.90312,0.218973,-0.572413,0.897995,0.399309,0.945271,3.8402,5.18026,102.254,351.634
1470,58.328,7.16521,12.2977,40.169,0.527488,1.451,2.41251,3.16226,1.90312,1.03328,1.15207,0.523043,0.257887,0.945271,4.79872,5.13873,88.2017,352.2
1476,60.355,7.31825,12.6794,39.7962,0.740168,0.364888,2.21503,0.755166,1.00442,0.218973,1.15207,0.523043,0.116465,0.779224,2.88169,5.20103,99.4324,352.773
1482,59.9995,6.77143,11.1028,38.6289,1.34783,1.24593,0.99974,0.755166,1.00442,1.84758,2.87656,0.897995,0.257887,0.945271,4.79872,5.05567,81.0234,353.327
1488,55.1992,6.05548,10.5409,37.781,0.816125,0.661101,0.635154,1.55753,1.00442,0.218973,1.15207,0.897995,0.399309,0.945271,3.8402,5.01413,83.0117,353.836
1494,67.1285,5.54675,9.00085,36.3124,0.633828,0.531982,-0.0256589,2.35989,1.00442,1.03328,-0.572413,0.897995,0.54073,0.779224,4.79872,5.01413,102.295,354.388
1500,60.8143,5.89681,8.81524,35.7192,0.800934,1.53455,1.44028,1.55753,1.00442,0.218973,1.15207,0.897995,0.54073,0.945271,1.92317,5.0349,95.9559,354.978
1506,57.5432,6.45415,9.10442,35.7777,0.732572,0.904147,1.47826,1.55753,0.105729,1.84758,1.15207,0.897995,0.54073,1.11132,2.88169,4.99337,76.2961,355.494
1512,58.0769,5.75967,9.21355,35.9593,0.603445,1.26872,1.95678,2.35989,1.90312,1.03328,0.28983,0.897995,0.54073,0.779224,4.79872,5.01413,72.5892,355.937
1518,54.9545,4.92313,9.48673,35.7028,1.18832,0.516792,0.414883,2.35989,1.90312,2.66189,0.28983,-0.226862,0.54073,0.779224,4.79872,4.84801,86.6392,356.453
1524,53.7792,4.49087,8.67266,35.3925,0.056553,0.577554,1.45547,2.35989,1.00442,1.84758,-0.572413,0.523043,0.257887,0.779224,3.8402,4.82724,102.73,356.998
1530,50.7641,4.87369,8.90209,35.3551,0.269233,0.433245,0.916189,1.55753,0.105729,-0.595332,1.15207,0.897995,0.257887,0.779224,5.75724,4.84801,89.0342,357.555
1536,51.3959,4.72057,8.97857,35.5422,0.200872,1.04086,1.27318,3.16226,0.105729,1.03328,2.01432,0.523043,0.54073,0.613177,3.8402,4.84801,96.0137,358.105
1542,53.3422,4.86811,8.36113,34.9752,0.0793402,1.32188,0.597176,1.55753,1.00442,1.84758,1.15207,0.14809,0.257887,0.945271,3.8402,4.84801,92.6526,358.672
1548,52.7217,4.2173,7.55785,34.4882,0.580658,0.372483,1.52383,2.35989,0.105729,1.03328,2.01432,0.523043,0.54073,1.11132,2.88169,4.82724,112.321,359.28
1554,52.2716,3.64301,6.98394,34.151,0.140106,0.175008,1.97957,2.35989,1.90312,-0.595332,2.01432,0.523043,0.399309,0.779224,2.88169,4.82724,128.731,359.956
1560,47.8849,1.7175,9.11479,35.3387,0.747764,0.0155095,1.77449,0.755166,1.00442,0.218973,0.28983,0.523043,0.54073,1.11132,4.79872,4.66111,115.467,360.651
1566,49.8061,4.5507,8.61769,34.5897,0.162893,2.25609,2.32896,2.35989,0.105729,1.03328,2.01432,-0.226862,0.682152,0.613177,4.79872,4.68188,121.659,361.341
1572,48.0449,4.24443,8.8089,34.1401,0.261638,1.31429,0.93138,1.55753,0.105729,1.03328,0.28983,0.523043,0.682152,0.613177,4.79872,4.68188,106.942,361.971
1578,51.505,4.03626,8.48624,33.6363,0.573062,0.782624,1.96437,2.35989,1.00442,0.218973,1.15207,0.897995,0.257887,0.779224,2.88169,4.78571,102.224,362.578
1584,53.2706,4.39198,8.45915,33.5348,1.15793,1.31429,0.832638,2.35989,1.00442,1.84758,0.28983,0.523043,0.54073,0.613177,3.8402,4.70264,85.2799,363.164
1590,47.6885,5.6058,8.94513,33.9363,0.785742,0.934527,0.384501,1.55753,1.00442,0.218973,2.87656,0.897995,0.257887,0.779224,4.79872,4.64034,80.4013,363.643
1596,45.3345,4.98218,7.97787,33.2504,0.0337659,0.114247,0.23259,0.755166,1.00442,1.84758,2.01432,0.14809,0.399309,0.613177,4.79872,4.53651,84.9113,364.155
1602,47.7582,4.15112,7.4152,33.0362,0.611041,1.37505,0.262972,1.55753,2.80182,1.03328,0.28983,0.897995,0.54073,0.945271,3.8402,4.70264,79.586,364.648
1608,43.3529,3.83367,6.67704,32.1245,0.261638,0.0231047,0.00472328,2.35989,1.90312,0.218973,1.15207,0.523043,0.399309,0.945271,4.79872,4.72341,82.8975,365.138
1614,48.4141,3.18279,6.02644,32.3498,0.671807,0.554768,0.331332,1.55753,1.00442,1.03328,0.28983,0.897995,0.399309,0.945271,2.88169,4.51575,79.802,365.662
1620,38.397,3.28649,6.24492,32.076,0.565467,1.12441,0.308545,0.755166,0.105729,0.218973,0.28983,0.14809,0.399309,0.779224,4.79872,4.53651,75.6765,366.133
1626,44.5634,2.79434,5.6381,31.5556,0.18568,0.0534855,0.354118,1.55753,-0.792967,0.218973,1.15207,0.14809,0.399309,0.779224,4.79872,4.51575,82.1512,366.575
1632,41.073,2.52074,5.17318,31.2496,0.0945317,-0.0376568,0.498434,1.55753,1.00442,1.84758,1.15207,0.523043,0.399309,0.945271,2.88169,4.49498,89.7944,367.091
1638,44.5074,3.09506,5.40285,31.3623,0.535084,0.501602,0.202207,-0.0471979,1.00442,0.218973,2.01432,0.14809,0.399309,0.779224,4.79872,4.49498,107.191,367.692
1644,42.1305,2.43859,5.32072,30.981,0.200872,0.326912,0.376905,2.35989,1.00442,1.03328,-0.572413,-0.226862,0.399309,0.945271,2.88169,4.53651,98.6918,368.303
1650,44.0556,1.65611,5.72504,31.2652,0.322403,1.37505,1.17444,2.35989,2.80182,0.218973,1.15207,0.523043,0.257887,0.945271,2.88169,4.49498,102.006,368.904
1656,46.5458,1.88583,5.99296,31.1149,0.618637,0.638315,1.01493,1.55753,1.00442,-1.40964,-0.572413,0.14809,0.399309,1.11132,3.8402,4.34962,97.9351,369.492
1662,48.8591,1.54126,5.18914,30.8518,0.390765,0.600339,0.202207,2.35989,1.90312,0.218973,0.28983,0.523043,0.257887,1.11132,3.8402,4.32885,102.759,370.105
1668,44.3024,0.048312,4.92116,30.5134,-0.0118085,0.448435,1.12127,2.35989,1.00442,0.218973,2.87656,0.897995,0.257887,0.281084,4.79872,4.49498,99.5233,370.707
1674,46.8909,0.195834,4.68589,30.3575,0.124915,0.342103,0.0882743,2.35989,1.00442,1.03328,1.15207,0.14809,0.399309,0.945271,2.88169,4.32885,101.69,371.297
1680,46.417,0.687872,3.72316,29.5995,0.276829,0.167413,0.551603,1.55753,0.105729,1.03328,2.01432,1.27295,0.399309,0.779224,2.88169,4.34962,87.5499,371.839
1686,40.2099,0.944677,3.63542,29.325,0.246446,1.23833,0.255376,2.35989,1.90312,0.218973,0.28983,0.14809,0.54073,0.779224,3.8402,4.34962,87.9178,372.357
1692,39.9214,1.24536,3.78299,28.9429,1.17312,0.509197,1.14406,2.35989,0.105729,1.03328,1.15207,0.14809,0.399309,0.779224,4.79872,4.16272,87.4526,372.894
1698,38.2041,1.39849,5.19951,29.2818,1.14274,1.07884,0.445265,0.755166,0.105729,1.03328,0.28983,0.523043,0.257887,0.945271,4.79872,4.16272,85.9371,373.408
1704,37.1669,2.43222,4.28071,28.7923,-0.118149,-0.0756328,0.323736,2.35989,0.105729,1.03328,1.15207,0.14809,0.257887,0.613177,4.79872,4.18349,95.6236,373.959
1710,41.7063,1.82521,4.13315,28.3833,-0.0877657,0.0686758,1.67574,0.755166,0.105729,1.84758,2.87656,0.523043,0.116465,0.779224,4.79872,4.34962,79.5039,374.463
1716,40.9961,1.60108,3.83244,28.0496,0.254042,0.0382951,0.376905,1.55753,0.105729,1.03328,0.28983,0.523043,0.399309,0.779224,4.79872,4.16272,104.359,375.004
1722,39.119,0.627268,3.85398,27.9954,0.276829,0.25096,0.0958698,2.35989,1.90312,1.84758,1.15207,0.523043,0.399309,0.447131,3.8402,4.16272,103.825,375.625
1728,40.6532,1.15763,3.88668,28.103,0.18568,1.25353,1.41749,2.35989,1.90312,0.218973,0.28983,0.523043,0.399309,0.779224,4.79872,4.16272,94.2892,376.215
1734,46.748,2.11476,4.99694,29.0073,0.671807,0.25096,1.83525,2.35989,1.00442,0.218973,0.28983,0.523043,0.399309,1.11132,3.8402,4.14196,99.7249,376.823
1740,43.7385,0.916769,5.67481,29.674,0.360382,1.66367,0.111061,1.55753,1.00442,0.218973,2.01432,0.523043,0.257887,0.945271,3.8402,4.18349,112.755,377.471
1746,42.3711,0.572244,5.63653,30.2384,0.952848,0.516792,1.18963,1.55753,1.00442,0.218973,0.28983,0.523043,0.54073,0.945271,4.79872,3.9966,104.394,378.106
1752,38.0086,1.82442,4.5535,28.8723,0.413552,0.919337,0.0123188,3.16226,0.105729,1.03328,-0.572413,0.14809,0.257887,0.779224,3.8402,4.18349,109.878,378.764
1758,35.1965,0.911187,3.71679,28.6518,0.428743,0.691481,0.0806787,1.55753,0.105729,1.03328,0.28983,0.523043,0.399309,0.945271,2.88169,4.01736,105.698,379.499
1764,36.8382,0.593777,3.20787,28.0756,0.102127,0.00791431,1.44788,2.35989,-0.792967,1.03328,2.01432,0.523043,0.399309,1.11132,3.8402,4.14196,119.325,380.171
1770,35.5251,2.01585,5.0129,29.1359,0.930061,1.00288,0.407287,1.55753,1.90312,0.218973,0.28983,0.897995,0.54073,0.945271,5.75724,4.03813,0.0,380.573
1776,35.519,3.00016,5.99697,29.5015,0.550275,0.258556,1.71372,1.55753,0.105729,0.218973,1.15207,0.523043,0.116465,0.447131,4.79872,3.9966,0.0,380.573
1782,40.0061,2.38756,5.00173,28.7483,0.0489573,0.258556,0.179421,2.35989,1.00442,1.03328,0.28983,0.14809,0.257887,0.779224,3.8402,3.97583,0.0,380.573