File: 01_Data/Accent_Chair/Furniture_Calorimeter/Accent_Chair_R2.csv
Time (s),Convective HRR,TCPlume1,TCPlume2,TCPlume3,DPPlume1,DPPlume2,DPPlume3,HF1,HF2,HF3,HF4,HF5,HF6,RAD2,RAD1,Load Cell,Heat Release Rate,Total Heat Released
-120,0.0,5.30144,6.65162,16.8203,0.0695743,-0.00434011,0.0297439,-0.0269702,0.0755206,0.143701,0.384024,0.248918,-0.0677398,0.447131,1.92317,26.8601,0.0,0.0
-114,1.2403,3.89051,6.42753,16.8258,0.0391914,-0.0651016,-0.0689982,-0.829334,0.974216,0.143701,1.24627,-0.126034,0.0736819,0.281084,1.92317,27.047,0.0,0.0
-108,0.0,4.07087,6.18684,16.8148,0.107553,0.0108503,0.00695726,-0.829334,1.87291,2.58661,-1.34046,-0.126034,-0.209162,0.447131,1.92317,26.8808,0.0,0.0
-102,0.0,3.50211,5.84791,16.7442,-0.0291701,-0.00434011,0.0221484,-0.829334,-0.823175,0.143701,0.384024,0.248918,-0.0677398,0.613177,0.964651,26.8601,0.0,0.0
-96,0.0,3.69355,5.80963,16.8203,0.0391914,0.00325508,0.044935,-0.0269702,-0.823175,0.143701,-0.478219,-0.126034,0.0736819,0.281084,1.92317,27.0885,0.0,0.0
-90,0.0,3.49658,5.53616,16.4341,0.0391914,0.0336358,0.0373394,-0.0269702,0.0755206,0.143701,-0.478219,-0.126034,0.215104,0.281084,3.8402,26.9016,0.0,0.0
-84,0.0,3.57315,5.34477,16.2437,-0.0215744,0.0640166,-0.00823383,-0.0269702,0.0755206,0.143701,-0.478219,0.248918,-0.0677398,0.779224,2.88169,27.0262,0.0,0.0
-78,0.0,2.30967,5.00024,15.9771,-0.0139787,-0.0575064,0.00695726,-0.0269702,0.0755206,-0.670604,-0.478219,0.248918,0.215104,0.281084,1.92317,27.047,0.0,0.0
-72,0.0,2.46282,4.80883,16.0151,-0.0367659,-0.080292,-0.0614026,1.57776,0.974216,0.143701,0.384024,0.248918,-0.0677398,0.779224,1.92317,27.047,0.0,0.0
-66,0.0,1.93234,5.00578,16.6299,-0.0291701,-0.0726968,0.0981038,-0.0269702,0.0755206,0.143701,0.384024,-0.500987,-0.0677398,0.281084,1.92317,27.047,0.0,0.0
-60,0.0,3.08095,4.43152,16.1349,0.00121276,0.117183,0.0677216,-0.829334,0.0755206,0.143701,-0.478219,-0.126034,-0.0677398,0.281084,2.88169,27.1093,0.0,0.0
-54,0.0,2.46282,4.23456,15.5961,-0.0139787,-0.0119353,0.0677216,-0.0269702,-0.823175,0.143701,0.384024,0.62387,0.0736819,0.447131,1.92317,27.0677,0.0,0.0
-48,0.0,2.95502,3.96102,15.5144,-0.112723,0.0260406,-0.000638281,-0.0269702,-0.823175,-1.48491,1.24627,0.248918,-0.0677398,0.613177,0.964651,27.047,0.0,0.0
-42,0.0,1.80088,3.80234,15.5089,-0.0519573,0.0108503,0.0221484,-0.829334,0.974216,0.143701,0.384024,0.248918,0.0736819,0.281084,0.964651,27.0677,0.0,0.0
-36,0.0,0.77275,3.99931,15.9335,0.0467871,0.0640166,-0.0234249,-0.829334,0.0755206,0.958005,1.24627,-0.500987,-0.0677398,0.447131,1.92317,27.0262,0.0,0.0
-30,0.0,2.18927,3.57815,15.4382,-0.00638296,-0.0347209,-0.0310205,-0.0269702,0.974216,0.143701,0.384024,0.248918,-0.0677398,0.447131,1.92317,27.0677,0.0,0.0
-24,0.0,0.236847,4.07588,15.5144,0.0695743,-0.0271257,0.00695726,-0.0269702,0.974216,0.143701,-0.478219,0.248918,-0.0677398,0.613177,0.00613451,27.0262,0.0,0.0
-18,0.0,2.2331,3.81341,14.9864,-0.00638296,0.0488262,-0.0538071,-0.0269702,0.0755206,0.143701,0.384024,-0.126034,-0.0677398,0.281084,2.88169,27.2339,0.0,0.0
-12,0.0,0.996906,3.45775,14.8229,-0.0747445,-0.0651016,-0.106976,-0.0269702,-0.823175,0.143701,-1.34046,0.248918,0.215104,0.281084,0.964651,27.2339,0.0,0.0
-6,0.0,1.11175,3.34289,15.0516,-0.00638296,-0.0195305,0.0297439,0.775393,-0.823175,-0.670604,-1.34046,0.62387,-0.0677398,0.779224,0.964651,27.2131,0.0,0.0
0,0.0,1.60391,3.10762,15.0461,-0.0139787,0.0868022,0.00695726,-0.829334,0.974216,0.958005,0.384024,0.248918,0.0736819,0.281084,1.92317,27.0677,0.0,0.0
6,0.0,0.351678,2.96553,14.7902,0.0239999,-0.0195305,-0.0158294,-0.829334,0.0755206,0.958005,1.24627,-0.126034,-0.0677398,0.447131,1.92317,27.0885,0.0,0.0
12,0.0,0.794432,2.7192,14.4306,0.0239999,-0.0575064,0.0373394,-0.829334,0.974216,-1.48491,-2.2027,-0.500987,0.215104,0.613177,2.88169,27.047,0.0,0.0
18,0.0,-0.278459,2.91064,15.1549,-0.0975316,-0.0651016,-0.038616,-0.829334,-0.823175,-0.670604,1.24627,0.62387,-0.0677398,0.779224,1.92317,27.2339,0.0,0.0
24,0.0,1.10069,2.18316,14.6975,0.0164042,0.0943974,0.128486,-0.0269702,-0.823175,0.143701,0.384024,0.248918,0.0736819,0.281084,0.964651,27.2546,0.0,0.0
30,0.0,0.24193,2.24313,14.5666,-0.059553,0.0640166,0.0221484,0.775393,1.87291,0.143701,1.24627,0.248918,0.0736819,0.447131,1.92317,27.1923,0.0,0.0
36,0.0,1.48353,2.18316,14.1255,0.0239999,0.079207,-0.0310205,0.775393,-1.72187,-0.670604,1.24627,0.62387,-0.209162,0.613177,2.88169,27.1093,0.0,0.0
42,0.0,0.43885,1.90408,14.1145,-0.0291701,0.0108503,-0.0158294,-0.0269702,0.974216,0.143701,0.384024,0.248918,-0.209162,0.779224,2.88169,27.0885,0.0,0.0
48,0.0,0.367826,1.56503,14.2344,0.00121276,-0.0347209,-0.0538071,-0.829334,0.974216,-0.670604,-0.478219,0.248918,0.0736819,0.115037,0.964651,27.2131,0.0,0.0
54,0.0,0.553686,1.48292,14.267,0.00880849,0.00325508,0.0753172,-0.0269702,-0.823175,0.958005,-0.478219,0.248918,0.0736819,0.447131,3.8402,27.2546,0.0,0.0
60,0.0,-0.295131,1.82197,14.0327,-0.0291701,0.0716118,0.0221484,-0.0269702,0.0755206,0.958005,0.384024,-0.126034,-0.0677398,0.447131,0.964651,27.2131,0.0,0.0
66,0.0,0.236398,1.54843,13.9509,0.0695743,0.162754,-0.0234249,-0.829334,0.0755206,-0.670604,0.384024,0.248918,-0.0677398,0.447131,1.92317,27.1923,0.0,0.0
72,0.0,-0.427192,2.41798,14.5882,-0.0139787,-0.0499112,0.00695726,0.775393,0.974216,0.143701,1.24627,-0.126034,-0.0677398,0.447131,1.92317,27.2339,0.0,0.0
78,0.0,0.876079,1.84366,14.3594,0.145532,0.0488262,0.18925,0.775393,-0.823175,-0.670604,-0.478219,0.248918,0.0736819,0.447131,2.88169,27.2131,0.0,0.0
84,0.0,0.990925,1.95852,14.1687,0.0619786,0.041231,0.0373394,-0.0269702,0.974216,0.143701,0.384024,-0.126034,-0.0677398,0.447131,3.8402,27.2131,0.0,0.0
90,0.0,1.75107,2.06785,14.1251,0.145532,0.00325508,0.0145528,0.775393,0.974216,-0.670604,0.384024,0.248918,0.215104,0.613177,0.964651,27.2339,0.0,0.0
96,0.0,0.755704,1.83812,14.5445,0.0467871,-0.0195305,-0.038616,-0.0269702,1.87291,-0.670604,2.10851,-0.500987,0.0736819,0.613177,3.8402,27.2546,0.0,0.0
102,0.0,0.865014,1.7943,14.6153,0.0315957,-0.0119353,0.0145528,0.775393,0.0755206,0.143701,-1.34046,0.62387,0.0736819,0.447131,0.964651,27.2131,0.0,0.0
108,0.0,1.6579,2.51071,14.8711,0.570892,0.147564,0.151273,0.775393,0.974216,0.143701,0.384024,-0.500987,-0.0677398,0.613177,1.92317,27.5661,0.99884,0.00172944
114,0.0,1.54305,4.04224,16.1285,0.198702,0.0564214,0.280397,0.775393,1.87291,0.143701,-0.478219,0.62387,0.215104,0.281084,2.88169,27.0677,12.3103,0.0471851
120,0.0,2.98688,4.60545,17.2216,0.570892,1.15772,0.470286,1.57776,0.0755206,0.143701,-0.478219,0.248918,0.0736819,0.447131,3.8402,27.2339,29.5244,0.164027
126,0.0,3.93852,6.20763,18.053,0.836742,0.413395,1.75393,1.57776,0.974216,0.958005,0.384024,0.62387,0.0736819,0.447131,3.8402,27.2131,50.1021,0.410658
132,0.0,5.24014,7.24083,20.1809,0.96587,0.557704,1.16148,1.57776,0.974216,0.958005,1.24627,0.248918,0.0736819,0.779224,2.88169,27.0885,70.0936,0.755268
138,0.0,6.92963,10.4583,22.6893,0.730402,1.38558,0.46269,2.38012,1.87291,0.958005,-0.478219,0.998823,0.215104,0.613177,3.8402,27.2339,75.4735,1.18538
144,0.0,9.3664,11.6314,24.3439,1.27729,0.20073,1.76153,3.18248,1.87291,0.958005,0.384024,0.62387,-0.0677398,0.613177,3.8402,27.0677,92.8763,1.66656
150,0.0,11.0312,13.0272,25.1593,0.34302,0.899487,0.698152,3.18248,1.87291,2.58661,0.384024,-0.126034,0.215104,0.779224,3.8402,27.2546,101.943,2.23379
156,0.0,11.5443,13.0438,26.0824,0.380999,3.53502,3.29583,1.57776,0.0755206,0.958005,1.24627,0.248918,0.215104,0.779224,4.79872,27.047,114.236,2.86053
162,2.76823,11.7514,14.4329,28.0226,0.631658,1.37039,0.363948,1.57776,0.974216,0.143701,0.384024,0.248918,-0.0677398,0.447131,3.8402,27.047,137.236,3.58841
168,6.53761,16.9738,18.6578,30.9588,3.10027,3.78566,1.44252,2.38012,1.87291,1.77231,0.384024,0.248918,0.215104,0.613177,3.8402,27.0885,175.893,4.54887
174,11.2602,23.0846,23.1714,36.6947,0.44936,2.68436,0.0753172,3.98485,1.87291,3.40092,1.24627,0.248918,0.497947,0.945271,4.79872,27.047,246.948,5.86281
180,24.4199,24.2521,26.1523,42.8418,2.1508,1.49191,2.97682,6.39194,0.974216,2.58661,2.10851,0.62387,0.497947,1.11132,7.67427,26.8808,308.926,7.50674
186,48.274,32.1158,38.7136,50.6913,2.61414,3.64895,1.73115,7.1943,2.77161,1.77231,2.10851,0.998823,0.780791,1.44341,8.63279,26.9224,364.56,9.60655
192,77.1256,38.5211,42.5184,53.467,2.99393,1.14253,4.93647,8.79903,4.569,3.40092,2.97075,2.12368,1.20506,1.27736,9.5913,26.9016,494.546,12.1833
198,107.279,47.0991,50.9959,61.5222,1.01144,2.05396,6.12137,9.60139,4.569,3.40092,2.10851,2.12368,1.4879,1.60946,8.63279,26.5486,599.918,15.5454
204,157.928,59.9775,67.6653,79.7227,2.37108,4.52999,5.94667,13.6132,4.569,5.84383,2.97075,3.24854,1.91216,2.1076,14.3839,26.5901,724.558,19.5974
210,207.854,75.7356,82.1281,95.3907,5.28784,2.03877,2.46032,16.0203,6.36639,6.65814,5.55748,4.37339,2.33643,2.43969,14.3839,26.2163,935.597,24.5451
216,252.231,85.271,96.9764,117.912,2.13561,1.55267,8.49118,20.0321,9.06247,8.28674,4.69524,4.74835,3.04354,3.26993,19.1765,26.0917,1147.41,30.7536
222,315.757,109.906,122.501,149.274,2.10523,8.07694,5.75679,27.2534,12.6573,9.91535,7.28197,6.99806,4.45776,4.5983,24.9276,25.8841,1193.12,37.8092
228,407.755,134.811,159.423,185.184,7.4906,2.82107,7.56452,33.6723,16.252,15.6155,10.7309,9.62273,6.15482,6.09272,32.5957,25.3857,1402.98,45.9814
234,488.155,165.148,223.591,260.04,5.61445,12.2315,4.28325,36.8818,17.1507,16.4298,10.7309,9.99768,6.72051,6.59086,36.4298,24.9081,1341.48,54.1986
240,591.468,165.186,218.05,271.187,9.98199,10.0821,5.83274,39.2888,17.1507,15.6155,11.5932,8.49787,6.29624,6.42481,34.5127,24.5343,1292.84,62.5877
246,671.308,176.838,239.076,314.533,5.90309,10.7125,7.67086,40.0912,15.3533,13.9869,12.4554,9.24778,6.15482,6.09272,35.4713,24.0567,1244.24,70.2687
252,699.643,182.215,245.771,355.824,7.69568,5.1452,7.82277,40.8936,16.252,17.2441,10.7309,9.24778,5.73055,5.59458,37.3883,23.9113,1137.78,77.3816
258,738.937,173.131,241.783,366.733,4.91565,5.83636,8.18736,44.103,15.3533,15.6155,11.5932,9.24778,6.0134,5.76063,40.2638,23.6206,1129.83,84.0789
264,677.962,169.688,237.778,380.153,9.24521,10.0061,1.16908,48.9172,14.4546,17.2441,11.5932,8.87282,5.87197,5.92667,42.1809,23.0806,1061.04,90.2845
270,658.711,155.113,222.837,376.199,8.02989,5.25153,5.52132,50.5219,13.556,14.8012,12.4554,7.74797,5.44771,5.26249,42.1809,22.7069,772.141,95.7559
276,618.153,150.403,217.518,362.137,6.66266,6.29207,4.91368,35.277,9.06247,12.3583,10.7309,6.24816,4.17491,3.76807,29.7202,22.4161,713.129,100.15
282,584.143,140.635,202.433,338.709,6.27528,3.78566,9.06844,29.6605,9.06247,10.7297,8.14421,5.1233,3.4678,3.60202,25.8861,21.7516,686.908,104.33
288,544.552,133.258,188.127,322.308,7.00447,6.45157,2.11092,25.6487,7.26508,9.10105,7.28197,3.99844,2.61927,2.77179,19.1765,21.9177,652.449,108.483
294,447.618,126.125,173.615,306.133,4.31558,5.39584,6.71382,29.6605,8.16378,8.28674,9.8687,4.74835,3.18496,3.26993,24.9276,21.7724,640.976,112.296
300,439.713,120.209,166.36,295.23,6.37402,3.77047,6.17454,28.0558,8.16378,9.10105,10.7309,4.37339,2.90212,3.10388,25.8861,21.3778,578.917,115.792
306,419.34,117.807,164.782,286.205,4.89286,2.55524,6.28088,25.6487,6.36639,7.47244,9.00645,3.99844,2.7607,2.93783,23.9691,21.2948,507.325,119.134
312,395.346,105.523,152.395,274.426,4.55105,5.57053,8.85577,23.2416,5.46769,7.47244,6.41972,3.62349,2.61927,2.43969,20.135,20.921,430.688,121.933
318,368.246,100.16,145.231,265.601,7.54377,5.17558,8.119,20.8345,6.36639,6.65814,7.28197,3.62349,2.33643,2.27365,18.218,20.921,400.178,124.404
324,367.206,95.5467,138.58,254.047,3.35852,7.3554,4.67062,18.4274,5.46769,5.02953,6.41972,2.49863,1.77074,2.27365,16.3009,20.651,346.059,126.589
330,301.138,92.5602,130.75,242.623,2.80403,4.79582,2.09573,15.2179,4.569,3.40092,3.833,2.12368,1.4879,1.7755,13.4254,20.4226,334.237,128.59
336,280.21,79.9665,115.353,226.949,4.96882,4.09706,4.66303,15.2179,5.46769,4.21522,5.55748,2.12368,1.4879,1.44341,12.4669,20.2565,336.284,130.575
342,256.515,71.377,102.847,213.612,3.30535,3.77047,1.44252,15.2179,4.569,3.40092,4.69524,1.74873,1.20506,1.7755,9.5913,20.2772,276.203,132.383
348,234.065,66.572,95.2491,205.424,3.17623,3.51983,7.42781,12.0085,3.6703,4.21522,4.69524,2.12368,1.06363,1.27736,9.5913,20.1111,254.764,134.082
354,240.131,62.5647,88.7341,195.003,0.783572,1.32482,5.31624,10.4038,3.6703,2.58661,3.833,1.74873,1.06363,1.44341,8.63279,19.9034,246.986,135.584
360,203.418,60.06,86.8923,189.041,3.07748,5.19077,3.73637,9.60139,2.77161,3.40092,2.97075,0.62387,0.780791,1.27736,8.63279,19.7373,247.081,137.061
366,197.493,57.5159,81.8962,179.487,0.783572,2.66917,5.35422,8.79903,1.87291,4.21522,2.97075,0.998823,0.922213,0.945271,6.71575,19.7581,220.821,138.511
372,180.98,51.5052,75.2595,170.403,2.07485,3.18564,4.04019,9.60139,1.87291,2.58661,3.833,0.998823,0.922213,1.11132,6.71575,19.5919,212.537,139.873
378,170.587,51.162,74.4424,166.846,1.64948,3.30716,1.36656,8.79903,0.974216,3.40092,2.97075,1.37378,0.780791,1.11132,7.67427,19.4258,216.481,141.21
384,158.029,48.0127,71.724,160.215,0.555701,2.85905,3.8579,7.99667,1.87291,1.77231,2.10851,0.62387,0.922213,0.945271,8.63279,19.4258,248.248,142.575
390,135.152,47.7798,70.7601,154.616,3.07748,3.23121,2.8401,8.79903,2.77161,3.40092,2.97075,0.998823,0.639369,0.945271,6.71575,19.3012,225.031,143.966
396,134.191,46.1493,66.6517,147.865,3.82946,4.84899,3.28823,7.99667,2.77161,2.58661,1.24627,1.37378,0.639369,0.945271,5.75724,19.1351,226.494,145.315
402,130.974,43.5457,61.8727,141.733,0.9127,1.59065,3.93385,7.99667,2.77161,1.77231,3.833,0.998823,0.639369,1.11132,5.75724,18.9274,246.334,146.719
408,139.766,44.6174,61.0956,137.841,0.616466,1.87927,4.39718,8.79903,2.77161,4.21522,2.10851,1.37378,0.780791,0.945271,6.71575,18.9274,256.686,148.156
414,134.299,42.1594,58.2949,132.904,1.42921,7.94023,0.690556,9.60139,1.87291,2.58661,2.10851,1.37378,0.780791,0.945271,6.71575,18.699,269.72,149.701
420,138.211,41.1173,57.7796,127.687,2.56857,3.07931,2.6654,7.99667,1.87291,2.58661,2.97075,1.37378,0.780791,0.945271,7.67427,18.6159,265.568,151.319
426,141.331,45.1316,59.7298,128.061,2.05206,5.89712,4.82253,8.79903,2.77161,2.58661,2.97075,0.62387,0.922213,1.11132,7.67427,18.5744,277.072,152.981
432,160.126,43.9329,58.2843,125.541,2.99393,1.32482,2.34639,8.79903,2.77161,3.40092,4.69524,0.62387,0.780791,1.27736,6.71575,18.4498,247.506,154.456
438,167.86,47.4884,59.9345,124.712,2.58376,0.929868,2.8401,8.79903,1.87291,3.40092,3.833,1.37378,0.780791,1.11132,6.71575,18.2421,264.995,155.995
444,183.614,48.5939,60.6646,122.911,2.41665,4.3553,2.96922,8.79903,2.77161,3.40092,2.97075,1.74873,0.922213,0.945271,8.63279,18.2837,259.697,157.59
450,147.887,48.9587,65.1045,124.776,6.80698,7.30983,5.7264,8.79903,3.6703,4.21522,2.97075,0.62387,0.780791,1.11132,6.71575,18.0968,264.905,159.178
456,154.471,50.6175,64.9523,123.012,0.730402,1.59824,6.42519,9.60139,2.77161,2.58661,3.833,1.74873,1.06363,1.44341,9.5913,17.9722,255.328,160.71
462,160.381,51.0926,64.7634,122.559,0.874721,0.922273,2.89326,7.1943,1.87291,5.02953,2.97075,1.74873,0.922213,1.11132,7.67427,17.9514,289.168,162.275
468,150.457,49.4922,61.8511,118.442,2.10523,3.84642,4.05538,8.79903,2.77161,2.58661,2.10851,0.998823,0.922213,1.27736,4.79872,17.7438,316.313,164.063
474,146.842,49.8567,64.8577,119.145,4.76373,2.96538,5.27067,10.4038,2.77161,2.58661,1.24627,0.998823,0.639369,0.779224,5.75724,17.5776,271.964,165.787
480,161.93,52.1056,67.1279,121.08,4.00416,6.21612,1.9818,7.99667,4.569,3.40092,2.97075,0.998823,0.922213,1.11132,7.67427,17.4323,241.582,167.337
486,174.644,52.3587,67.1226,120.029,5.27264,3.46666,3.57686,7.99667,3.6703,1.77231,1.24627,0.998823,1.06363,1.11132,6.71575,17.2869,247.712,168.828
492,168.695,54.0771,68.831,119.379,1.47478,3.5654,3.88069,7.99667,1.87291,3.40092,2.97075,1.37378,0.922213,0.779224,6.71575,17.2661,263.117,170.38
498,171.326,49.6558,64.7683,116.483,2.79644,6.53512,1.87546,8.79903,3.6703,2.58661,2.97075,1.74873,0.780791,1.11132,6.71575,17.0792,248.151,171.923
504,160.382,47.4612,60.9003,112.492,1.45959,2.81348,0.842467,7.99667,2.77161,1.77231,3.833,1.74873,0.639369,0.945271,6.71575,17.0792,271.04,173.347
510,143.127,47.3077,62.9896,113.824,3.46486,4.95532,1.94382,7.1943,3.6703,3.40092,4.69524,1.37378,1.06363,0.945271,6.71575,16.9546,220.957,174.716
516,155.139,44.3777,60.8582,111.929,1.39883,1.0438,1.60202,7.1943,1.87291,2.58661,2.97075,1.74873,0.780791,1.11132,7.67427,16.747,235.128,176.054
522,132.759,44.6957,54.8787,105.499,1.52036,3.93756,3.55408,7.99667,2.77161,3.40092,2.10851,0.998823,0.922213,0.945271,7.67427,16.7885,221.709,177.392
528,127.595,42.0411,53.2767,104.114,1.78621,2.96538,1.54126,7.1943,2.77161,3.40092,2.10851,1.37378,0.639369,1.11132,5.75724,16.5809,239.662,178.73
534,130.254,38.2722,49.9098,101.89,0.472148,2.17548,1.61721,7.1943,2.77161,3.40092,2.97075,1.37378,0.780791,0.945271,5.75724,16.6224,258.034,180.178
540,124.091,38.4642,49.0644,98.2783,2.59895,1.88686,0.865254,7.1943,3.6703,3.40092,2.97075,1.37378,0.639369,0.779224,7.67427,16.4355,256.142,181.721
546,133.596,39.5778,49.281,96.8351,3.2294,2.1375,4.45795,7.1943,1.87291,1.77231,2.10851,1.74873,0.497947,0.945271,7.67427,16.2901,259.193,183.314
552,133.484,43.6555,54.7308,99.659,2.06725,3.58059,3.81233,7.1943,1.87291,3.40092,2.10851,0.998823,0.780791,1.11132,5.75724,16.1032,234.46,184.821
558,147.375,48.6613,60.6581,101.616,4.61941,3.4135,2.54387,6.39194,2.77161,0.958005,2.97075,1.37378,0.780791,1.44341,5.75724,16.1032,226.514,186.241
564,166.827,46.2003,57.5149,98.1673,2.50021,3.26159,3.26545,6.39194,2.77161,1.77231,2.10851,1.37378,0.780791,0.945271,7.67427,15.9163,223.184,187.598
570,142.857,45.9461,57.0048,96.8085,2.94835,4.59075,2.45272,7.1943,1.87291,3.40092,2.97075,1.37378,0.780791,0.945271,7.67427,15.9579,227.273,188.932
576,134.393,41.5516,54.1933,95.2872,3.35093,2.12231,3.02239,7.1943,1.87291,2.58661,2.97075,1.74873,0.780791,1.27736,6.71575,15.7917,222.973,190.281
582,123.149,41.6897,53.9244,94.2454,2.04446,1.78812,1.38175,7.1943,1.87291,2.58661,2.10851,1.37378,0.922213,0.945271,5.75724,15.7917,246.026,191.691
588,121.53,39.492,52.4852,94.4663,2.12042,3.83883,4.7162,7.99667,2.77161,2.58661,2.97075,0.998823,0.639369,1.27736,6.71575,15.5841,230.071,193.159
594,119.284,39.3002,53.2181,95.6396,2.73567,2.12991,1.4653,7.1943,1.87291,2.58661,2.10851,1.37378,0.922213,1.11132,6.71575,15.4387,249.488,194.585
600,124.697,40.8173,53.6133,95.8131,2.24955,3.30716,0.584219,7.99667,0.974216,3.40092,2.10851,0.998823,0.780791,1.11132,6.71575,15.4595,248.625,196.081
606,124.245,40.0988,51.1658,93.0041,0.882317,3.21602,1.69317,7.99667,2.77161,3.40092,0.384024,1.37378,1.20506,1.27736,8.63279,15.3141,246.422,197.544
612,128.947,39.1241,50.4952,92.5572,2.29512,1.73496,3.20468,7.99667,2.77161,1.77231,2.10851,0.62387,0.922213,0.945271,5.75724,15.2934,251.626,199.007
618,132.234,39.3052,49.0105,89.5363,3.36612,2.03877,1.82229,7.1943,1.87291,1.77231,2.10851,0.998823,0.780791,0.779224,7.67427,15.1065,247.573,200.469
624,131.236,36.9106,48.6721,87.8038,3.65476,3.16285,0.933614,9.60139,3.6703,1.77231,2.10851,1.37378,0.922213,1.27736,6.71575,15.1272,310.428,202.009
630,129.918,37.1988,45.4375,84.7452,1.6267,2.52486,2.86288,7.1943,2.77161,3.40092,2.10851,1.37378,0.922213,1.11132,7.67427,14.7534,279.521,203.716
636,129.208,38.0843,47.9102,85.2852,3.11546,1.76534,1.51847,8.79903,1.87291,1.77231,2.10851,1.74873,0.922213,0.945271,7.67427,14.8157,257.406,205.27
642,126.275,38.8999,48.7934,85.3534,1.58872,2.24384,2.33119,7.99667,1.87291,1.77231,3.833,0.62387,0.780791,0.945271,6.71575,14.7742,233.886,206.741
648,153.879,41.54,53.3702,87.2577,2.21157,1.73496,1.94382,7.99667,3.6703,4.21522,2.97075,1.37378,1.06363,1.11132,6.71575,14.6081,223.925,208.135
654,129.239,40.1621,49.8609,84.6505,0.517722,1.65141,1.37416,8.79903,1.87291,3.40092,2.97075,0.998823,0.780791,0.945271,7.67427,14.5665,224.505,209.547
660,127.904,39.0275,48.2168,84.7081,2.58376,3.83123,4.5339,7.1943,3.6703,2.58661,2.97075,1.37378,0.922213,1.11132,8.63279,14.2758,250.011,210.965
666,121.228,37.305,48.4335,82.941,1.60391,2.56283,0.32597,7.99667,2.77161,3.40092,1.24627,1.37378,0.780791,1.27736,6.71575,14.2551,264.609,212.573
672,123.808,36.8404,48.1213,82.815,2.63693,3.49704,2.58185,7.1943,3.6703,2.58661,2.97075,1.37378,0.780791,1.27736,5.75724,14.2966,244.205,214.036
678,122.052,36.6162,47.8251,81.6776,1.05702,1.52989,1.87546,7.1943,3.6703,3.40092,2.10851,0.998823,0.780791,1.11132,5.75724,14.1305,233.662,215.439
684,151.638,36.7175,49.369,81.667,2.82682,4.21859,1.74634,6.39194,2.77161,2.58661,2.97075,0.998823,1.06363,1.11132,7.67427,13.9643,212.584,216.756
690,120.288,36.5252,48.6236,81.3682,1.64948,1.81851,0.515859,7.99667,2.77161,3.40092,2.97075,0.998823,0.922213,0.779224,6.71575,13.9228,242.186,218.131
696,114.702,32.6624,43.3519,78.5385,0.851934,2.68436,2.78693,7.1943,0.974216,1.77231,2.97075,1.37378,0.922213,1.11132,5.75724,13.819,261.281,219.661
702,107.196,36.2473,47.2373,80.1417,2.75846,3.23881,0.500668,7.99667,2.77161,1.77231,2.10851,0.62387,0.922213,1.27736,7.67427,13.7774,246.92,221.22
708,122.245,34.6061,45.6485,79.0467,2.40906,5.57812,3.54648,7.1943,1.87291,2.58661,2.10851,0.998823,0.780791,1.11132,7.67427,13.5905,262.406,222.859
714,131.73,37.5765,46.9619,79.7224,4.83209,5.83636,2.68059,6.39194,1.87291,3.40092,2.97075,1.37378,0.639369,1.11132,7.67427,13.6321,261.325,224.491
720,124.716,33.9797,46.5859,78.3233,3.3965,1.77293,0.553837,7.1943,1.87291,4.21522,2.10851,1.37378,0.922213,1.11132,6.71575,13.6113,265.336,226.02
726,140.034,37.4482,48.0201,78.5695,4.31558,3.17804,3.61484,7.99667,2.77161,2.58661,2.10851,1.37378,0.780791,0.779224,6.71575,13.4659,239.449,227.492
732,146.618,39.7563,49.6061,79.4811,1.39883,3.76287,3.80473,7.99667,1.87291,2.58661,2.97075,0.998823,0.922213,1.44341,7.67427,13.2583,249.814,228.905
738,146.507,37.5121,46.7127,77.0919,1.03423,0.626061,1.51088,7.1943,3.6703,0.958005,2.10851,0.998823,0.780791,1.27736,7.67427,13.1337,259.13,230.376
744,133.111,35.8513,43.9881,76.1959,2.56857,1.92484,2.87048,5.58957,2.77161,3.40092,2.97075,1.37378,0.780791,0.945271,7.67427,12.9676,282.855,231.93
750,122.39,37.1597,44.8792,78.3596,2.1508,5.66927,1.33618,7.1943,2.77161,2.58661,3.833,1.37378,0.639369,1.11132,6.71575,12.9468,212.506,233.363
756,111.938,39.042,49.6374,80.209,3.41929,3.01095,3.1743,7.99667,2.77161,1.77231,2.97075,2.12368,0.780791,1.27736,6.71575,12.9883,235.504,234.712
762,116.44,39.3884,49.6851,80.2563,1.68746,1.21089,3.71358,7.99667,1.87291,3.40092,4.69524,1.37378,0.922213,1.27736,8.63279,12.9676,236.672,236.157
768,103.886,35.4821,43.9559,76.7509,0.646849,1.12734,3.31102,7.1943,3.6703,1.77231,2.10851,2.12368,0.639369,1.27736,8.63279,12.573,237.333,237.58
774,108.423,37.2768,45.8118,77.191,1.57353,3.23881,1.44252,7.99667,1.87291,1.77231,2.97075,1.74873,0.639369,1.27736,6.71575,12.6353,252.87,239.082
780,118.493,37.09,46.4051,76.2008,1.17855,3.03374,1.45771,7.1943,3.6703,3.40092,2.97075,1.37378,1.06363,0.945271,6.71575,12.4484,233.759,240.583
786,121.956,37.3781,46.9133,79.5643,2.72048,4.71987,2.55146,7.99667,2.77161,3.40092,2.10851,1.37378,0.922213,1.27736,6.71575,12.4484,277.62,242.161
792,120.748,40.0963,48.0563,80.9896,3.02431,2.87424,5.50613,7.1943,1.87291,3.40092,2.10851,0.998823,0.922213,1.27736,7.67427,12.303,250.694,243.76
798,119.322,41.8675,50.4821,83.6155,1.47478,6.83893,3.01479,7.1943,2.77161,2.58661,3.833,0.998823,1.06363,0.945271,5.75724,12.2823,241.23,245.167
804,144.936,42.8345,51.2582,84.9002,1.63429,2.1451,2.8325,7.99667,3.6703,2.58661,2.10851,0.998823,0.780791,1.11132,6.71575,12.1161,241.277,246.544
810,131.421,41.1334,50.6402,84.9105,5.12073,4.34011,1.02476,7.1943,1.87291,3.40092,2.10851,1.37378,1.20506,1.11132,5.75724,12.1161,247.977,248.002
816,130.186,39.4568,48.791,83.9928,0.464552,1.15772,0.895636,7.99667,4.569,2.58661,2.97075,1.74873,0.922213,1.11132,7.67427,12.0538,234.327,249.45
822,117.182,40.7929,52.3343,85.566,3.85984,5.06165,3.60725,7.99667,2.77161,2.58661,2.10851,1.37378,1.06363,1.11132,6.71575,11.95,263.634,250.931
828,112.75,41.7182,52.3658,83.505,2.40906,4.46923,2.00459,7.99667,2.77161,3.40092,2.97075,0.998823,0.780791,1.11132,5.75724,11.7839,248.528,252.46
834,116.814,42.4143,54.0896,83.3843,5.30303,4.18061,1.95142,9.60139,1.87291,3.40092,2.10851,1.37378,0.922213,1.11132,7.67427,11.7839,256.193,253.927
840,116.515,42.6321,55.1905,84.1131,3.34333,5.43382,4.1997,7.99667,1.87291,1.77231,2.10851,1.37378,0.922213,1.27736,8.63279,11.6178,247.932,255.435
846,106.804,42.4354,54.9218,85.0936,2.34829,3.01855,1.64,7.99667,1.87291,3.40092,2.10851,1.74873,0.922213,1.44341,5.75724,11.6385,254.827,256.956
852,115.604,42.0634,54.5531,85.2405,2.5154,1.16532,2.58944,7.1943,1.87291,2.58661,3.833,1.37378,0.780791,1.27736,5.75724,11.4724,254.19,258.473
858,112.319,41.2977,53.4621,84.5952,5.67522,2.81348,2.16409,7.1943,1.87291,3.40092,4.69524,1.37378,0.780791,1.27736,8.63279,11.4724,237.883,259.961
864,113.905,42.6689,53.2722,84.7734,1.99129,3.99073,2.14131,8.79903,1.87291,3.40092,2.10851,0.998823,1.06363,1.27736,8.63279,11.327,310.635,261.495
870,118.625,41.3986,52.1226,84.4377,1.2621,6.0946,2.20207,8.79903,1.87291,1.77231,3.833,1.74873,0.639369,1.44341,8.63279,11.1401,259.515,263.139
876,114.871,40.1216,53.0717,85.5285,2.29512,2.78309,3.65282,8.79903,2.77161,2.58661,2.10851,1.37378,0.922213,1.27736,7.67427,11.1194,257.222,264.662
882,111.528,38.2888,48.8905,82.9905,2.66731,2.31979,2.68059,7.99667,0.974216,3.40092,2.10851,1.37378,1.20506,1.11132,7.67427,11.1609,263.999,266.188
888,125.758,38.7961,47.302,81.782,2.40615,2.43108,2.59819,9.43487,1.90145,3.99843,2.70324,1.7721,0.839584,0.865988,7.14118,10.9453,253.894,267.648
894,123.238,38.4111,47.1604,83.0374,0.586083,3.62616,5.0428,8.79903,3.6703,4.21522,2.97075,1.37378,1.06363,1.27736,7.67427,10.974,223.925,269.089
900,117.669,38.4911,48.4249,83.7033,0.0619786,1.64382,4.08577,8.79903,0.974216,2.58661,3.833,1.74873,1.06363,1.27736,7.67427,10.7663,265.499,270.527
906,107.503,38.4376,47.7424,84.1278,1.66468,0.0943974,3.59205,8.79903,2.77161,2.58661,2.10851,1.74873,0.922213,1.27736,7.67427,10.6417,264.748,272.184
912,104.327,35.6297,43.7681,81.7372,2.34829,0.474157,1.09312,9.60139,2.77161,3.40092,3.833,1.74873,0.780791,1.27736,5.75724,10.4756,249.757,273.735
918,109.027,34.9507,44.2827,84.0071,1.60391,0.337443,5.05799,8.79903,2.77161,2.58661,4.69524,1.37378,0.922213,1.27736,7.67427,10.6417,235.387,275.174
924,138.128,35.0468,45.5657,83.771,1.48238,3.36033,4.73139,7.99667,2.77161,3.40092,3.833,1.37378,0.639369,1.27736,9.5913,10.4341,255.534,276.611
930,124.546,35.3088,45.0463,83.1471,1.28489,1.11215,1.91344,8.79903,2.77161,3.40092,2.97075,0.998823,1.20506,1.11132,7.67427,10.268,252.019,278.131
936,118.703,37.2743,48.8103,85.5906,2.35589,5.95788,2.78693,8.79903,4.569,2.58661,3.833,0.62387,0.922213,1.11132,7.67427,10.3095,245.932,279.696
942,113.496,37.9785,48.805,84.5573,3.25978,4.71987,2.43753,8.79903,3.6703,3.40092,2.97075,1.74873,0.922213,1.27736,6.71575,10.1018,254.062,281.245
948,117.832,40.7272,50.3478,85.3176,4.36116,3.32235,4.5339,9.60139,1.87291,3.40092,2.97075,0.998823,1.20506,1.44341,8.63279,9.97723,286.013,282.996
954,119.711,39.6093,49.0903,83.9594,1.14057,4.58315,1.95901,7.99667,2.77161,2.58661,3.833,1.37378,1.06363,1.27736,7.67427,9.76957,273.333,284.73
960,123.066,40.8281,52.5907,87.1432,4.35356,3.99832,2.80971,9.60139,2.77161,2.58661,3.833,1.37378,1.20506,1.27736,8.63279,9.97723,270.435,286.35
966,130.779,41.5566,51.5407,86.5029,2.65212,4.9857,4.58707,9.60139,3.6703,4.21522,2.97075,1.74873,1.06363,1.11132,8.63279,9.81111,266.37,287.944
972,127.007,41.9659,53.4236,88.7438,2.79644,2.58562,2.46791,9.60139,2.77161,4.21522,2.97075,0.998823,1.06363,1.27736,7.67427,9.76957,255.861,289.491
978,122.268,39.6781,51.931,89.2057,2.76606,3.2464,4.05538,8.79903,2.77161,1.77231,3.833,1.37378,0.922213,1.27736,7.67427,9.62421,281.404,291.029
984,122.012,40.4072,52.5796,87.426,1.50517,3.22362,2.55906,7.1943,0.974216,1.77231,2.97075,1.37378,0.922213,0.945271,8.63279,9.64498,289.132,292.679
990,110.919,39.6938,50.2468,86.98,1.67987,4.0439,5.33143,7.1943,2.77161,2.58661,2.10851,1.37378,1.06363,1.11132,8.63279,9.43732,208.128,294.085
996,118.019,40.4817,53.7236,88.8957,2.40906,3.33754,2.52868,8.79903,1.87291,3.40092,1.24627,1.37378,0.780791,1.11132,8.63279,9.43732,214.945,295.345
1002,117.517,38.1963,50.1305,85.212,1.38363,0.99063,2.65021,8.79903,2.77161,3.40092,2.10851,0.998823,0.780791,1.27736,8.63279,9.43732,225.366,296.702
1008,110.244,35.9382,47.7832,85.343,1.48997,2.616,4.3592,8.79903,1.87291,3.40092,2.97075,0.998823,0.780791,1.27736,9.5913,9.10506,233.454,298.092
1014,101.287,33.6433,45.2516,83.6071,2.05206,2.11472,3.02239,7.99667,0.974216,2.58661,2.97075,1.37378,1.06363,1.11132,7.67427,9.12582,224.112,299.507
1020,107.556,34.5371,45.506,82.9045,2.92557,2.94259,3.38697,8.79903,2.77161,2.58661,2.10851,1.37378,1.20506,1.11132,7.67427,9.16736,196.069,300.788
1026,107.258,35.8684,47.1954,83.6226,3.90541,3.27678,2.68059,8.79903,2.77161,1.77231,2.97075,1.37378,0.922213,1.11132,5.75724,8.93893,234.838,302.16
1032,104.555,35.8684,45.0817,82.1548,1.6267,1.08177,2.4907,8.79903,2.77161,2.58661,2.10851,1.37378,0.780791,1.44341,6.71575,8.95969,199.03,303.451
1038,98.9591,36.2262,46.2898,81.9921,1.14057,4.55277,2.8249,8.79903,2.77161,2.58661,3.833,1.37378,0.780791,1.11132,7.67427,8.79357,206.615,304.693
1044,104.79,34.3869,45.9507,81.3264,1.88495,3.38311,2.25524,7.99667,0.974216,3.40092,4.69524,1.37378,0.780791,1.27736,8.63279,8.79357,214.248,305.948
1050,95.5969,34.1567,45.3889,80.5141,3.01671,3.39071,2.42994,7.1943,2.77161,1.77231,4.69524,0.998823,0.922213,1.11132,6.71575,8.6482,207.957,307.204
1056,88.7091,33.5783,43.7764,78.5175,1.77102,1.94762,2.77174,7.99667,2.77161,3.40092,2.97075,0.998823,0.780791,1.11132,6.71575,8.62744,190.511,308.411
1062,81.193,32.2922,44.2857,79.2771,3.46486,1.45394,3.0072,7.1943,1.87291,2.58661,1.24627,1.37378,0.922213,1.11132,7.67427,8.62744,182.523,309.501
1068,84.0696,33.9852,44.8851,79.5759,2.08244,4.37049,3.14392,8.79903,4.569,3.40092,3.833,1.37378,0.780791,1.11132,5.75724,8.50284,200.774,310.648
1074,80.3948,31.5734,40.5611,77.3648,1.63429,2.60081,3.5161,5.58957,2.77161,0.958005,3.833,0.62387,0.639369,1.11132,5.75724,7.31917,209.509,311.908
1080,70.8584,28.1447,37.8331,75.4892,1.15576,5.23634,2.35398,6.39194,1.87291,2.58661,2.10851,0.998823,0.780791,0.779224,5.75724,6.94538,207.033,313.175
1086,71.5369,28.0907,38.1903,75.6567,1.12538,1.48432,3.87309,7.1943,1.87291,3.40092,2.97075,0.62387,0.780791,1.27736,6.71575,7.98369,200.188,314.342
1092,75.7509,28.8278,40.0763,75.8608,2.34829,1.27925,4.62505,4.78721,2.77161,0.958005,2.97075,1.37378,0.780791,0.945271,5.75724,7.98369,209.988,315.556
1098,68.3184,28.4779,38.8351,75.7402,1.48238,2.72233,3.349,6.39194,1.87291,2.58661,1.24627,0.998823,0.639369,1.11132,6.71575,7.85909,181.062,316.701
1104,65.4372,27.3419,37.4111,74.5248,2.10523,3.50464,2.36917,6.39194,2.77161,3.40092,1.24627,0.62387,0.780791,1.11132,5.75724,7.65143,211.155,317.85
1110,66.5236,26.7329,36.7331,73.4561,2.53818,0.626061,3.13632,7.1943,0.974216,2.58661,2.97075,1.37378,0.922213,0.945271,5.75724,7.63066,195.819,319.079
1116,65.5355,26.1668,36.4714,72.5759,5.50052,2.03877,4.08577,5.58957,0.974216,0.958005,0.384024,0.998823,0.639369,0.779224,4.79872,7.6722,184.761,320.245
1122,67.3958,27.4278,36.5994,72.2247,3.60159,1.75774,1.04755,6.39194,1.87291,3.40092,3.833,0.62387,0.780791,0.945271,6.71575,7.65143,173.188,321.312
1128,67.4683,26.7002,35.5788,71.9207,2.72808,3.86161,2.79452,5.58957,2.77161,0.958005,2.10851,0.248918,0.356525,0.945271,4.79872,7.63066,175.628,322.373
1134,67.7076,27.266,35.9529,71.7006,1.70265,1.12734,1.3058,5.58957,2.77161,2.58661,3.833,0.998823,0.780791,0.945271,5.75724,7.4853,154.972,323.332
1140,61.9372,26.0855,35.2311,70.7364,2.20397,3.38311,0.455094,5.58957,2.77161,1.77231,1.24627,0.62387,0.497947,0.945271,4.79872,7.50607,149.523,324.282
1146,54.7639,24.6713,32.479,69.3632,0.920295,2.44891,3.37178,4.78721,1.87291,1.77231,2.10851,1.37378,0.639369,0.945271,4.79872,7.29841,158.01,325.237
1152,48.7157,23.8394,32.6666,68.1524,2.24195,2.12231,4.29084,7.1943,2.77161,1.77231,3.833,1.37378,0.780791,0.945271,5.75724,7.29841,163.399,326.181
1158,45.9183,21.8541,30.6224,66.4849,1.04183,1.11215,1.92103,4.78721,0.974216,1.77231,2.10851,0.998823,0.639369,0.779224,5.75724,7.15304,162.097,327.125
1164,42.452,20.4889,29.2305,65.6405,0.753189,4.06668,2.77933,5.58957,0.974216,1.77231,2.10851,1.37378,0.497947,1.11132,5.75724,7.13228,157.486,328.064
1170,37.5435,19.6754,28.9507,64.4863,1.54314,6.45157,1.44252,5.58957,1.87291,2.58661,2.10851,0.62387,0.639369,0.779224,4.79872,7.11151,162.504,328.998
1176,38.266,19.1708,28.8645,63.6308,3.18382,2.23624,2.25524,5.58957,3.6703,2.58661,2.97075,0.248918,0.639369,0.945271,5.75724,6.96615,174.263,330.042
1182,34.9629,19.0948,27.8473,62.602,1.23932,3.63376,2.39955,3.98485,0.974216,1.77231,2.10851,1.37378,0.497947,0.779224,3.8402,7.13228,178.924,331.075
1188,31.9749,19.1218,27.7611,62.4444,0.722806,0.922273,0.698152,5.58957,0.974216,0.143701,2.97075,0.998823,0.639369,0.779224,3.8402,6.96615,201.207,332.245
1194,35.8635,19.1923,27.831,61.6672,1.60391,4.43125,1.50328,5.58957,0.974216,0.958005,1.24627,1.37378,0.639369,0.779224,6.71575,6.98691,191.425,333.402
1200,38.105,19.3712,28.0462,61.2154,0.981061,2.51726,2.27043,4.78721,2.77161,1.77231,2.10851,1.37378,0.497947,0.945271,4.79872,6.98691,177.648,334.508
1206,44.6973,20.4287,31.164,63.1581,1.58112,4.00592,5.36182,4.78721,2.77161,1.77231,2.97075,1.74873,0.356525,0.779224,5.75724,6.80002,177.057,335.601
1212,45.9968,22.5731,30.8095,63.2157,1.20134,1.15772,1.60202,4.78721,3.6703,0.958005,3.833,0.62387,0.497947,0.945271,4.79872,6.84155,177.177,336.665
1218,45.2726,22.113,30.4657,63.0634,0.737998,0.777964,2.12611,5.58957,1.87291,2.58661,2.97075,1.74873,0.639369,0.779224,2.88169,6.80002,164.53,337.705
1224,41.5848,21.0352,29.2832,62.9005,3.10027,4.9857,1.93623,4.78721,2.77161,0.958005,2.97075,0.998823,0.497947,0.779224,4.79872,6.80002,202.828,338.783
1230,32.4423,19.8914,28.9013,62.0132,0.768381,2.52486,3.66041,3.98485,1.87291,2.58661,3.833,0.62387,0.639369,0.945271,6.71575,6.65466,156.691,339.812
1236,33.5283,20.9105,29.4606,61.7873,2.22676,3.10969,2.59704,4.78721,2.77161,2.58661,1.24627,0.998823,0.497947,0.945271,6.71575,6.80002,160.638,340.757
1242,39.245,18.7411,28.2501,61.929,2.12802,0.793155,1.06274,4.78721,1.87291,2.58661,2.10851,0.998823,0.639369,0.945271,6.71575,6.61312,183.696,341.805
1248,35.5113,19.224,26.6934,61.4773,2.45463,2.51726,2.81731,5.58957,1.87291,0.143701,2.97075,0.62387,0.497947,0.779224,3.8402,6.65466,172.159,342.883
1254,37.2465,19.0611,27.022,60.5842,1.70265,1.18051,1.89065,4.78721,1.87291,1.77231,1.24627,0.62387,0.497947,0.779224,5.75724,6.46776,169.6,343.945
1260,42.3411,20.8776,29.5032,62.0863,2.72048,2.4641,3.44014,3.98485,0.974216,2.58661,2.10851,0.62387,0.639369,0.779224,5.75724,6.46776,162.02,344.985
1266,38.4656,22.2692,29.4171,62.2595,0.601275,3.36792,3.349,4.78721,1.87291,1.77231,1.24627,0.62387,0.497947,0.779224,4.79872,6.1355,177.559,346.018
1272,38.0335,19.7497,26.0459,60.0006,0.988657,0.709608,0.196846,4.78721,2.77161,2.58661,2.10851,0.62387,0.497947,0.945271,4.79872,6.48853,180.846,347.076
1278,35.7457,18.7567,24.6048,58.4866,0.403786,3.2464,1.89825,4.78721,1.87291,2.58661,2.97075,0.998823,0.639369,0.779224,4.79872,6.34317,188.105,348.2
1284,44.3475,18.8597,23.8375,58.3655,0.0695743,0.101993,2.50589,5.58957,1.87291,0.958005,2.10851,0.248918,0.356525,0.779224,5.75724,6.3224,182.344,349.264
1290,39.4489,19.6194,25.9162,58.2919,0.996253,0.884297,0.614601,4.78721,2.77161,1.77231,2.10851,0.62387,0.639369,0.945271,4.79872,6.30163,204.958,350.371
1296,43.3751,18.7728,25.3388,58.0972,0.897508,2.40333,2.89326,4.78721,0.0755206,2.58661,2.10851,0.62387,0.780791,0.779224,4.79872,6.30163,180.353,351.479
1302,43.1594,20.1668,26.9135,58.9332,1.55074,2.90462,2.11852,4.78721,0.974216,1.77231,2.97075,0.62387,0.639369,1.11132,5.75724,6.30163,196.602,352.573
1308,44.9172,21.6785,29.3949,59.5534,2.93316,3.35273,3.72118,4.78721,2.77161,0.958005,-0.478219,1.37378,0.497947,0.613177,4.79872,6.15627,167.278,353.7
1314,44.8395,24.3177,32.1655,60.3889,1.9761,3.84642,5.18712,4.78721,2.77161,2.58661,2.10851,0.62387,0.639369,0.945271,5.75724,6.17704,183.734,354.757
1320,46.9632,24.8629,33.3443,60.7722,0.0847657,2.70714,2.33119,3.98485,2.77161,2.58661,2.97075,0.62387,0.639369,0.945271,4.79872,6.15627,175.933,355.825
1326,41.0746,23.6095,31.8005,60.4359,0.874721,2.81348,0.926018,3.98485,0.974216,1.77231,2.10851,1.37378,0.497947,0.779224,4.79872,5.96938,184.313,356.908
1332,38.8187,19.5156,28.4155,58.7802,0.327829,4.34011,1.61721,4.78721,3.6703,3.40092,2.97075,1.37378,0.639369,0.945271,4.79872,5.99014,189.263,358.043
1338,30.2092,18.3269,27.0853,57.5915,0.813955,1.75015,3.349,5.58957,0.974216,0.958005,4.69524,0.998823,0.780791,0.779224,4.79872,5.99014,188.103,359.147
1344,31.9977,17.9032,25.419,56.3337,1.02664,1.6666,1.61721,4.78721,1.87291,3.40092,1.24627,0.998823,0.639369,1.11132,4.79872,5.94861,205.125,360.261
1350,27.0847,17.8487,25.1759,56.2441,0.639254,1.8261,1.61721,5.58957,1.87291,2.58661,2.10851,1.74873,0.639369,0.945271,6.71575,5.80325,203.261,361.476
1356,29.6793,18.1854,25.0949,56.3125,1.23932,1.62863,1.15388,3.18248,1.87291,0.958005,2.10851,0.998823,0.356525,1.11132,2.88169,5.80325,180.747,362.635
1362,28.5445,18.9725,26.0283,57.407,1.91534,4.89456,0.53105,5.58957,1.87291,2.58661,2.10851,0.62387,0.497947,1.11132,3.8402,5.82401,169.232,363.693
1368,39.8091,19.4932,26.6968,56.5859,1.83938,1.17291,5.06559,4.78721,1.87291,1.77231,1.24627,1.37378,0.639369,0.613177,5.75724,5.78248,159.729,364.709
1374,37.5571,19.7915,28.1995,58.3116,2.49261,3.4135,3.62244,4.78721,1.87291,2.58661,2.10851,0.62387,0.639369,1.11132,4.79872,5.65788,155.541,365.714
1380,27.0268,19.086,26.5186,57.1488,1.71785,1.09696,1.64,3.98485,2.77161,0.958005,1.24627,0.998823,0.639369,0.945271,4.79872,5.65788,168.188,366.704
1386,26.4737,19.3628,25.1323,56.091,2.37108,2.18307,0.32597,3.98485,1.87291,2.58661,2.10851,1.37378,0.639369,0.945271,5.75724,5.65788,166.285,367.784
1392,24.6122,17.1036,22.6948,53.8993,0.601275,0.671632,2.72616,4.78721,2.77161,0.958005,1.24627,0.62387,0.639369,1.11132,4.79872,5.61635,143.758,368.74
1398,20.4379,16.8588,23.2842,54.5105,0.487339,2.53245,3.37938,3.98485,1.87291,1.77231,2.97075,0.998823,0.639369,0.945271,4.79872,5.69942,151.893,369.66
1404,25.8487,17.5111,23.3275,53.4458,1.31527,1.07418,0.174059,3.98485,1.87291,1.77231,1.24627,0.62387,0.639369,0.945271,5.75724,5.47099,141.901,370.566
1410,22.8535,16.4237,22.8135,52.5015,1.07221,1.9856,2.17169,3.18248,2.77161,2.58661,2.10851,0.62387,0.356525,0.779224,3.8402,5.47099,158.707,371.452
1416,18.7961,15.9558,22.3481,52.0477,0.654445,0.147564,1.70836,3.98485,1.87291,1.77231,2.10851,0.62387,0.497947,0.779224,3.8402,5.28409,178.068,372.409
1422,17.689,15.6076,22.9864,52.7071,2.1584,2.49448,0.872849,1.57776,2.77161,0.958005,2.97075,0.998823,0.497947,0.779224,3.8402,5.47099,169.071,373.455
1428,18.2454,16.0536,23.0133,52.8072,1.7938,2.57043,1.76153,3.98485,0.974216,0.958005,0.384024,1.37378,0.497947,0.779224,4.79872,5.32563,160.343,374.508
1434,18.2058,16.6572,24.4456,53.7616,1.20893,2.35776,1.13869,3.18248,0.974216,1.77231,1.24627,0.62387,0.497947,0.613177,4.79872,5.30486,164.899,375.511
1440,19.5921,15.6562,22.391,51.794,1.33806,0.671632,1.8071,3.98485,2.77161,0.958005,1.24627,0.62387,0.497947,0.945271,4.79872,5.30486,154.434,376.466
1446,16.5347,15.2969,21.2376,50.4844,1.14817,0.512133,1.91344,3.18248,1.87291,2.58661,2.10851,0.62387,0.356525,0.779224,4.79872,5.32563,142.557,377.392
1452,14.0032,13.2764,18.9982,49.2636,0.388595,0.436181,0.493072,3.98485,1.87291,0.958005,1.24627,1.37378,0.356525,0.779224,3.8402,5.34639,143.798,378.276
1458,6.93814,11.695,17.1188,47.9517,0.122744,1.56786,0.158868,3.18248,0.0755206,1.77231,1.24627,0.62387,0.497947,0.945271,3.8402,5.18026,148.481,379.16
1464,7.14458,10.3853,17.0698,47.7929,0.775977,1.48432,1.79951,3.18248,1.87291,1.77231,1.24627,0.998823,0.356525,0.779224,4.79872,5.34639,164.909,380.089
1470,1.41117,10.3797,18.5853,48.0468,0.418978,0.337443,0.538645,3.18248,1.87291,4.21522,1.24627,0.62387,0.497947,0.779224,5.75724,5.32563,135.51,380.967
1476,2.47767,9.75723,16.2159,45.849,0.267063,1.29444,0.25761,3.98485,1.87291,0.958005,1.24627,1.37378,0.356525,0.945271,2.88169,4.9726,142.26,381.782
1482,1.58223,10.0741,15.7448,45.3795,1.77977,1.49322,0.550106,2.25676,1.08578,2.52409,1.52448,-0.356315,0.429839,0.964986,5.78866,5.28792,141.885,382.65
1488,1.56017,10.9469,16.0687,44.5919,2.23436,2.11472,1.65519,3.18248,0.0755206,0.143701,2.10851,0.62387,0.497947,0.613177,3.8402,5.13873,139.068,383.491
1494,2.90362,11.1761,16.1068,44.1091,0.229084,0.739988,1.60202,3.18248,1.87291,1.77231,1.24627,0.998823,0.215104,0.613177,3.8402,4.9726,138.564,384.336
1500,1.00626,10.6357,15.4539,43.4348,0.259467,0.0868022,0.0981038,2.38012,1.87291,1.77231,2.10851,0.62387,0.356525,0.779224,3.8402,5.18026,144.518,385.191
1506,0.0,9.90417,14.1526,42.0533,0.267063,0.00325508,0.044935,3.98485,2.77161,1.77231,2.10851,0.998823,0.356525,0.945271,3.8402,4.99337,162.945,386.128
1512,0.0,8.54399,14.3974,41.7713,0.335425,1.06658,0.652579,2.38012,0.0755206,1.77231,0.384024,0.998823,0.215104,0.779224,3.8402,4.95184,151.132,387.082
1518,0.0,8.89367,13.9073,42.0372,0.563296,1.23368,2.63502,3.18248,1.87291,1.77231,-0.478219,0.998823,0.356525,0.779224,4.79872,4.99337,139.588,387.964
1524,0.0,7.76799,14.1577,42.356,0.206297,0.496942,0.212037,3.18248,0.974216,1.77231,2.10851,0.998823,0.497947,0.779224,2.88169,5.01413,133.447,388.769
1530,1.5154,8.05743,12.8442,40.888,1.20893,0.793155,2.28562,3.98485,0.974216,1.77231,1.24627,0.998823,0.497947,0.779224,3.8402,4.78571,134.019,389.571
1536,0.0,7.56014,12.0809,40.5154,0.282255,1.05899,3.56927,3.18248,0.974216,1.77231,1.24627,0.998823,0.497947,0.945271,4.79872,4.99337,145.921,390.411
1542,0.0,8.23209,13.0566,40.6855,1.30008,1.6742,0.705747,3.18248,1.87291,0.958005,2.10851,0.998823,0.356525,0.779224,3.8402,4.84801,144.025,391.259
1548,0.0,8.527,13.2745,39.9294,0.950678,1.11215,0.796894,3.18248,1.87291,2.58661,1.24627,0.62387,0.639369,0.945271,4.79872,4.80647,128.589,392.113
1554,0.0,9.1388,13.2745,40.1903,1.17855,1.93243,2.08814,3.18248,0.974216,0.958005,2.97075,0.998823,0.497947,0.779224,3.8402,4.80647,138.248,392.925
1560,0.0,9.66295,14.9412,40.5522,1.9837,1.23368,1.33618,3.18248,2.77161,1.77231,2.10851,0.62387,0.639369,0.945271,3.8402,4.80647,131.149,393.755
1566,0.0,9.87572,13.1707,39.6788,0.115149,1.13494,0.280397,3.18248,0.974216,1.77231,2.10851,0.998823,0.356525,0.779224,5.75724,4.80647,143.964,394.589
1572,0.0,9.11119,12.3693,38.9327,1.67987,3.29957,2.26283,2.38012,0.974216,0.958005,1.24627,0.998823,0.497947,0.779224,2.88169,4.61958,134.0,395.429
1578,0.0,7.8598,12.2654,38.6819,0.175914,2.7679,1.76153,3.18248,0.974216,0.958005,1.24627,0.998823,0.497947,0.945271,2.88169,4.82724,124.478,396.225
1584,0.0,7.8598,14.0585,39.9501,1.17095,2.33498,2.42994,3.98485,1.87291,1.77231,2.10851,0.248918,0.497947,0.779224,3.8402,4.66111,144.141,397.008
1590,0.0,9.68419,14.7337,40.3494,0.882317,2.25143,0.508263,2.38012,2.77161,0.143701,2.10851,0.998823,0.497947,0.945271,3.8402,4.68188,153.36,397.884
1596,0.0,10.0609,14.042,39.934,0.882317,2.41093,1.24503,3.18248,1.87291,0.958005,2.97075,0.62387,0.356525,0.779224,2.88169,4.64034,134.969,398.775
1602,0.0,10.1263,13.5352,39.2146,0.768381,0.208325,0.629792,3.18248,0.974216,1.77231,1.24627,0.998823,0.497947,0.613177,3.8402,4.68188,128.408,399.575
1608,0.0,9.84217,14.167,39.3477,0.472148,1.30963,0.348757,3.98485,2.77161,1.77231,1.24627,0.62387,0.356525,0.779224,2.88169,4.68188,133.176,400.375
1614,0.0,8.5423,12.4885,38.3401,0.107553,-0.0423161,0.401926,2.38012,1.87291,0.958005,2.10851,0.998823,0.497947,0.945271,4.79872,4.51575,145.774,401.215
1620,0.0,8.1488,12.0194,37.6945,0.624062,0.155159,0.318375,2.38012,2.77161,1.77231,1.24627,1.37378,0.497947,0.613177,2.88169,4.66111,143.783,402.042
1626,0.0,7.83175,11.2828,36.712,0.479743,0.291872,0.158868,3.98485,2.77161,0.958005,2.10851,0.998823,0.639369,0.779224,4.79872,4.66111,128.644,402.918
1632,0.0,7.55292,10.7752,36.4394,0.897508,0.512133,0.933614,3.18248,0.974216,1.77231,1.24627,0.998823,0.356525,0.945271,3.8402,4.49498,126.53,403.693
1638,0.0,7.73314,11.5662,36.8773,0.403786,1.09696,0.720939,4.78721,0.974216,0.958005,2.10851,0.998823,0.215104,0.447131,4.79872,4.49498,129.294,404.452
1644,0.0,6.76559,10.4856,36.4178,0.540509,0.512133,0.682961,2.38012,1.87291,1.77231,1.24627,0.62387,0.356525,0.613177,3.8402,4.49498,129.699,405.251
1650,0.0,5.73229,10.2946,36.9039,0.631658,1.92484,0.53105,2.38012,2.77161,1.77231,0.384024,0.62387,0.356525,0.613177,4.79872,4.51575,128.527,406.026
1656,0.0,6.0657,9.48089,35.9581,0.0847657,1.77293,0.508263,3.98485,2.77161,1.77231,2.97075,0.62387,0.215104,1.11132,4.79872,4.49498,131.494,406.818
1662,0.0,6.20773,10.5018,36.1344,0.631658,1.09696,0.774107,3.18248,0.974216,2.58661,2.10851,0.62387,0.356525,0.945271,4.79872,4.32885,115.162,407.598
1668,0.0,5.89049,9.95571,36.0488,2.02927,1.11215,1.45011,3.18248,0.0755206,1.77231,2.10851,0.62387,0.356525,0.945271,3.8402,4.49498,121.372,408.368
1674,0.0,7.41561,10.7527,36.3426,0.411382,2.17548,0.842467,3.18248,2.77161,0.958005,2.10851,0.62387,0.639369,0.613177,5.75724,4.32885,130.008,409.12
1680,0.0,7.20221,10.3103,35.7598,0.753189,0.337443,1.58683,3.18248,1.87291,1.77231,2.97075,-0.126034,0.497947,0.613177,5.75724,4.32885,131.959,409.904
1686,0.0,6.74305,10.3485,35.2732,0.608871,1.28684,2.19447,3.98485,0.974216,1.77231,0.384024,0.62387,0.639369,0.779224,3.8402,4.32885,122.177,410.671
1692,0.0,6.87953,9.5293,34.6578,0.198702,0.352634,0.303184,3.98485,1.87291,2.58661,2.10851,0.62387,0.497947,0.945271,3.8402,4.32885,123.61,411.386
1698,0.0,6.72647,9.45285,34.3206,0.418978,0.0564214,0.136082,3.18248,0.0755206,0.143701,2.97075,0.62387,0.497947,0.613177,5.75724,4.16272,116.52,412.084
1704,0.0,5.03137,9.51826,34.4222,1.07981,1.43115,2.08054,3.18248,1.87291,0.958005,2.10851,0.62387,0.639369,0.447131,3.8402,4.34962,140.304,412.824
1710,0.0,5.71484,10.5446,35.3905,1.16336,1.11215,2.20207,3.98485,1.87291,0.958005,1.24627,1.37378,0.497947,0.945271,4.79872,4.16272,104.21,413.523
1716,0.0,5.9279,10.1459,34.8501,0.0467871,0.0868022,0.280397,1.57776,0.974216,0.958005,2.10851,0.62387,0.497947,1.11132,4.79872,4.28732,114.287,414.165
1722,0.0,5.15684,9.14657,34.0204,0.175914,0.398205,0.500668,3.18248,1.87291,1.77231,-0.478219,0.62387,0.215104,0.945271,4.79872,4.14196,131.023,414.903
1728,0.0,5.14025,8.25045,33.4042,0.502531,0.724798,0.348757,2.38012,3.6703,1.77231,1.24627,0.998823,0.497947,0.945271,3.8402,4.14196,123.484,415.663
1734,0.0,4.59325,7.47434,32.6055,0.18351,-0.00434011,0.0525305,3.18248,0.974216,0.958005,0.384024,0.62387,0.497947,0.613177,2.88169,4.18349,137.4,416.466
1740,0.0,4.35801,7.88963,32.45,1.23172,1.28684,0.500668,2.38012,2.77161,0.958005,2.10851,0.62387,0.497947,0.779224,3.8402,4.16272,137.48,417.312
1746,0.0,4.11171,7.9878,32.4712,0.798764,0.360229,0.546241,3.98485,0.974216,0.958005,2.10851,0.62387,0.497947,0.613177,4.79872,4.14196,149.626,418.192
1752,0.0,6.06397,8.638,32.5838,0.730402,2.03877,1.8147,1.57776,0.974216,0.958005,2.97075,-0.126034,0.356525,1.27736,4.79872,4.16272,143.56,419.041
1758,0.0,7.10781,9.33686,32.8945,0.282255,1.08177,0.455094,2.38012,1.87291,1.77231,0.384024,0.248918,0.497947,0.945271,2.88169,4.18349,133.193,419.853
1764,0.0,6.57763,8.88358,32.8999,0.335425,0.436181,0.424712,3.98485,0.0755206,1.77231,2.10851,0.998823,0.356525,0.779224,5.75724,4.18349,130.95,420.632
1770,0.0,5.7246,9.17841,32.4762,0.0391914,0.0336358,0.204441,2.38012,0.974216,2.58661,1.24627,0.62387,0.356525,0.779224,3.8402,3.97583,0.0,420.92
1776,0.0,5.17213,9.12361,32.3849,1.11019,0.39061,0.219633,3.98485,2.77161,1.77231,1.24627,0.998823,0.356525,0.613177,3.8402,4.01736,0.0,420.92
1781,0.0,4.93138,8.00351,31.6981,0.0543828,-0.110673,0.128486,3.18248,1.87291,1.77231,2.10851,1.37378,0.639369,1.11132,2.88169,4.01736,0.0,420.92