File: 01_Data/Accent_Chair/Furniture_Calorimeter/Accent_Chair_R1.csv
Time (s),Convective HRR,TCPlume1,TCPlume2,TCPlume3,DPPlume1,DPPlume2,DPPlume3,HF1,HF2,HF3,HF4,HF5,HF6,RAD2,RAD1,Load Cell,Heat Release Rate,Total Heat Released
-120,0.0,-7.84716,-7.8758,9.78068,-0.100595,-0.0217644,0.13506,0.0134851,-0.823175,0.239501,0.144915,0.226862,0.0998271,0.613177,1.92317,26.1333,0.0,0.0
-114,0.0,-8.52487,-7.53465,10.1901,-0.085404,-0.00657399,-0.0396373,-1.59124,0.0755206,-1.38911,0.144915,0.601814,-0.183016,0.613177,0.964651,26.2579,0.0,0.0
-108,2.69645,-8.4129,-7.61864,10.0317,-0.00944678,-0.00657399,-0.0320417,0.0134851,-0.823175,0.239501,0.144915,0.601814,-0.0415946,0.447131,1.92317,26.2371,0.0,0.0
-102,3.85474,-8.46915,-7.51818,9.97686,0.0361276,0.0162116,-0.0244462,0.0134851,0.0755206,0.239501,-0.717328,-0.14809,-0.0415946,0.779224,2.88169,26.2371,0.0,0.0
-96,4.90307,-7.9374,-7.57435,9.84556,-0.00185106,0.0010212,-0.00165953,0.0134851,1.87291,-1.38911,0.144915,0.226862,-0.0415946,0.447131,1.92317,26.2371,0.0,0.0
-90,3.94022,-8.25093,-7.45689,10.1132,-0.115787,-0.0445499,0.0287227,0.0134851,-0.823175,0.239501,0.144915,-0.14809,0.0998271,0.779224,1.92317,26.424,0.0,0.0
-84,3.74248,-8.26796,-7.19992,10.4788,-0.0702126,0.00861639,-0.0320417,0.815849,0.0755206,0.239501,0.144915,0.226862,-0.0415946,0.281084,1.92317,25.9256,0.0,0.0
-78,2.00607,-7.96577,-7.87688,9.93258,0.0741062,0.0389971,0.0135316,0.815849,0.0755206,0.239501,-1.57957,-0.897995,-0.0415946,0.613177,1.92317,26.2579,0.0,0.0
-72,1.82532,-7.38401,-7.72587,10.08,0.0589147,0.0162116,0.0363182,1.61821,0.974216,-0.574803,-0.717328,0.601814,-0.0415946,0.613177,1.92317,26.0917,0.0,0.0
-66,0.63916,-7.86526,-7.65888,9.87774,0.0892976,0.0845683,-0.0472328,-0.788878,-0.823175,0.239501,0.144915,0.226862,-0.183016,0.779224,1.92317,26.0917,0.0,0.0
-60,1.45001,-8.35828,-7.52494,9.89383,-0.0626168,-0.0445499,-0.00925508,-0.788878,0.0755206,1.05381,0.144915,0.226862,-0.0415946,0.613177,1.92317,26.1125,0.0,0.0
-54,2.71619,-7.37888,-7.56409,9.81736,0.0361276,-0.0673355,0.0135316,0.815849,0.0755206,0.239501,0.144915,-0.14809,-0.0415946,0.613177,3.8402,26.071,0.0,0.0
-48,3.46793,-8.45943,-7.7826,9.71875,-0.0474254,-0.0369547,0.0591048,0.815849,-0.823175,1.05381,-0.717328,0.226862,0.0998271,0.613177,3.8402,26.2786,0.0,0.0
-42,2.76746,-8.26338,-7.86095,9.90991,-0.0170425,0.0238068,0.0287227,0.815849,0.974216,1.05381,0.144915,-0.14809,0.0998271,0.613177,1.92317,26.0502,0.0,0.0
-36,2.03805,-9.30059,-7.79963,10.1991,-0.032234,-0.0369547,-0.0168506,0.0134851,-1.72187,0.239501,0.144915,-0.14809,0.0998271,0.447131,3.8402,26.1125,0.0,0.0
-30,3.94301,-8.20769,-8.27557,10.1171,0.0361276,0.00861639,0.00593601,0.0134851,0.0755206,-0.574803,1.00716,-0.523043,0.241249,0.613177,2.88169,26.2579,0.0,0.0
-24,4.17853,-7.63703,-7.90068,10.0241,-0.00944678,0.00861639,-0.00925508,-1.59124,-0.823175,1.05381,0.144915,-0.14809,0.0998271,0.779224,1.92317,26.2786,0.0,0.0
-18,1.52773,-8.03444,-7.74966,9.82738,-0.00185106,0.0541875,0.00593601,0.0134851,-1.72187,1.05381,0.144915,0.226862,-0.0415946,0.613177,1.92317,26.1125,0.0,0.0
-12,1.92149,-7.49175,-7.83368,9.63067,-0.0398297,0.00861639,0.104678,0.0134851,0.974216,-0.574803,1.00716,0.226862,-0.324438,0.779224,1.92317,26.0917,0.0,0.0
-6,2.63864,-7.54792,-7.85071,9.46111,0.00574466,0.0010212,-0.0700194,-0.788878,0.0755206,0.239501,0.144915,-0.14809,0.0998271,0.945271,3.8402,26.071,0.0,0.0
0,1.76624,-8.18609,-7.9796,9.75592,0.0437233,-0.0597403,-0.0852105,-0.788878,-1.72187,-0.574803,0.144915,0.601814,-0.0415946,0.613177,3.8402,26.2579,0.8923,0.0
6,0.06601,-8.16393,-7.91827,9.81578,-0.0474254,0.0010212,0.0211271,0.0134851,0.0755206,-0.574803,-0.717328,-0.14809,-0.0415946,0.779224,2.88169,26.1125,0.0,0.000297433
12,0.08634,-8.1361,-8.04718,9.88116,-0.0550211,0.031402,0.0439137,-0.788878,0.0755206,0.239501,-0.717328,-0.14809,0.0998271,0.613177,1.92317,26.2371,0.0,0.00484075
18,0.54431,-7.91233,-7.98016,10.1377,0.0133404,0.0389971,0.0439137,0.815849,0.0755206,0.239501,-0.717328,-0.523043,0.241249,0.447131,2.88169,26.2786,0.1188,0.0164847
24,1.67624,-7.80616,-7.91315,10.0119,0.104489,0.0921635,0.0818915,0.0134851,-0.823175,-0.574803,1.00716,-0.523043,-0.183016,0.447131,2.88169,26.2579,2.07933,0.0348474
30,2.03357,-8.13098,-7.41538,9.65676,0.0133404,-0.0141692,0.127465,0.0134851,0.0755206,0.239501,-1.57957,0.226862,-0.183016,0.779224,2.88169,26.0917,3.10543,0.0552956
36,3.4646,-7.00116,-7.77348,9.72769,-0.0246382,-0.0977163,0.0135316,-0.788878,0.974216,1.05381,1.00716,0.226862,0.0998271,0.613177,1.92317,26.2579,4.13272,0.0719616
42,3.51836,-7.44862,-7.86886,9.48165,-0.0398297,0.0010212,-0.0928061,0.0134851,1.87291,0.239501,-0.717328,0.226862,0.0998271,0.779224,4.79872,25.9256,7.67411,0.113989
48,1.92303,-7.81808,-7.84672,9.88562,0.0285318,-0.105311,-0.00925508,-0.788878,1.87291,1.05381,-0.717328,-0.523043,-0.0415946,0.613177,3.8402,26.2579,5.41269,0.162723
54,2.31612,-8.13723,-7.89157,10.033,0.0361276,-0.0141692,-0.00165953,0.815849,-0.823175,0.239501,-0.717328,-0.523043,-0.324438,0.613177,4.79872,26.071,7.27434,0.208406
60,3.78303,-8.06452,-7.70139,10.2186,0.0361276,0.0162116,0.173038,-0.788878,1.87291,1.05381,-0.717328,-0.523043,-0.183016,0.779224,2.88169,26.0917,5.16604,0.259585
66,2.67399,-8.23267,-7.59525,10.5133,0.051319,0.114949,-0.077615,-1.59124,-0.823175,-0.574803,-0.717328,-0.14809,0.0998271,0.447131,2.88169,25.9048,8.27064,0.30844
72,3.89976,-7.8073,-7.67925,10.2402,-0.0246382,-0.0217644,0.112274,0.0134851,0.974216,1.86811,0.144915,0.226862,-0.183016,0.447131,2.88169,26.4655,0.0,0.347395
78,0.8047,-9.07352,-7.14257,10.3438,0.0133404,0.0997587,0.0211271,0.0134851,0.0755206,1.86811,-0.717328,-0.14809,-0.0415946,0.447131,2.88169,25.9464,3.04347,0.359113
84,0.0,-8.69246,-6.9192,10.8678,-0.00185106,-0.0293596,0.0211271,1.61821,-0.823175,-0.574803,-0.717328,0.226862,-0.0415946,0.613177,2.88169,26.0917,8.92975,0.39376
90,1.16143,-8.55262,-6.9362,10.7748,0.165255,0.0541875,0.00593601,0.815849,0.974216,-0.574803,1.8694,0.226862,-0.0415946,0.447131,3.8402,26.2579,19.407,0.4773979
96,1.36692,-7.74089,-6.71292,10.7637,-0.00185106,-0.0217644,-0.00165953,0.0134851,-0.823175,-0.574803,-0.717328,-0.14809,0.0998271,0.447131,1.92317,26.2371,32.2006,0.640928
102,2.03062,-7.07544,-5.89258,11.7188,0.0817019,1.00359,0.499646,0.0134851,0.974216,-0.574803,-0.717328,0.226862,-0.0415946,0.447131,2.88169,26.071,41.3343,0.8530092
108,6.36939,-5.45194,-4.7789,12.1605,0.400722,0.373185,-0.0320417,0.815849,0.974216,0.239501,1.00716,-0.14809,0.0998271,0.613177,3.8402,26.071,47.4382,1.11169
114,8.39731,-4.79512,-4.08416,12.2695,0.294382,0.282043,0.514838,0.815849,0.0755206,0.239501,0.144915,-0.14809,0.382671,0.613177,2.88169,25.9464,52.3448,1.42049
120,11.5292,-3.60088,-1.84686,14.7766,0.301978,0.935229,-0.00165953,3.22294,-0.823175,-0.574803,0.144915,0.226862,0.241249,0.613177,4.79872,26.2786,53.058,1.76836
126,17.0657,-1.75832,-1.82502,14.3788,0.750126,-0.0749307,0.112274,2.42058,0.974216,1.05381,0.144915,0.601814,-0.0415946,0.779224,3.8402,26.2371,52.4329,2.10068
132,21.1178,-3.26842,-2.44392,14.3406,0.362744,-0.0293596,-0.0396373,0.815849,0.974216,0.239501,0.144915,-0.14809,0.0998271,0.945271,4.79872,26.2371,63.2869,2.43087
138,25.4615,-1.22904,-0.755912,17.339,0.355148,1.31499,0.0742959,0.815849,0.974216,0.239501,0.144915,0.226862,0.0998271,0.779224,3.8402,25.9256,68.0254,2.83667
144,25.486,-0.502591,-0.0306183,18.2844,0.788104,1.01878,0.173038,0.815849,-0.823175,0.239501,0.144915,0.226862,0.382671,0.779224,3.8402,25.8633,59.5321,3.21935
150,29.5977,1.08511,1.05741,19.0986,-0.0398297,0.563065,0.575602,0.815849,0.974216,1.05381,1.00716,0.976767,-0.0415946,0.945271,3.8402,25.7387,49.0695,3.49599
156,37.8055,2.80798,4.61812,22.9302,1.31221,1.96058,1.2592,2.42058,0.974216,1.05381,0.144915,0.601814,0.241249,0.779224,3.8402,26.0917,60.2968,3.79676
162,40.4071,3.75406,4.875,25.0003,0.58302,0.373185,1.89723,1.61821,0.974216,0.239501,0.144915,0.226862,0.241249,0.613177,2.88169,25.9048,100.489,4.26826
168,42.0325,4.31724,5.97398,25.2539,0.453892,0.654207,0.0287227,2.42058,1.87291,1.86811,1.8694,-0.14809,-0.0415946,0.613177,3.8402,26.071,178.701,5.11195
174,51.4176,5.95215,8.22036,27.0178,1.01598,2.10489,1.0845,4.0253,0.974216,1.05381,0.144915,0.976767,0.382671,0.779224,6.71575,25.5933,240.769,6.46145
180,61.9283,11.4472,13.8624,31.3372,0.993189,1.50487,3.02137,5.63003,1.87291,2.68241,1.8694,0.976767,0.665514,0.945271,6.71575,26.0294,294.113,7.98551
186,112.047,18.5992,18.6482,36.088,2.14014,3.47962,4.47971,8.03712,1.87291,3.49672,2.73164,1.72667,1.08978,1.44341,8.63279,25.7595,407.862,10.0672
192,177.653,34.6503,37.6535,53.042,4.24416,1.17068,3.61382,9.64185,4.569,3.49672,1.8694,2.85153,1.51404,1.7755,11.5083,25.6141,503.047,12.8675
198,160.651,42.7605,44.2421,62.9583,2.48275,4.97693,2.08256,12.2029,3.6675,4.31374,4.85709,3.23382,1.66785,1.82993,10.4074,25.3714,612.07,16.1728
204,230.523,46.1629,47.731,68.4916,-0.00944678,5.34044,5.5279,12.8513,4.569,3.49672,4.45613,2.47658,1.79689,2.1076,12.4669,25.4272,728.663,20.2629
210,266.573,50.3304,61.5081,84.6887,6.55326,6.59365,5.89248,14.456,4.569,5.12533,3.59389,3.22648,1.93831,2.43969,15.3424,25.095,971.85,25.3459
216,306.994,66.9201,78.8129,106.604,6.24183,1.64918,8.7636,19.2702,8.16378,7.56824,3.59389,4.35134,2.92826,3.10388,18.218,24.7212,1071.29,31.9192
222,379.905,95.2012,111.59,138.313,2.51233,9.06208,4.5025,25.6891,9.06247,8.38255,7.04286,5.4762,3.77679,3.93411,23.0105,24.3889,1205.41,39.0385
228,485.971,118.974,151.416,181.296,2.26167,5.15815,5.94565,27.2938,12.6573,9.19685,7.9051,6.60105,4.4839,4.76435,23.9691,24.0774,1300.8,46.7083
234,575.987,152.88,191.39,229.965,4.15301,3.58595,10.5182,36.1198,15.3533,14.0827,9.62959,9.22572,5.89812,6.09272,32.5957,23.9321,1391.46,54.7163
240,667.453,184.763,252.668,318.843,8.20153,8.02914,13.564,43.3411,15.3533,16.5256,12.2163,11.1005,7.17092,7.25505,38.3468,23.4337,1341.83,62.8982
246,682.155,192.573,269.084,377.092,9.42444,12.1989,10.784,44.9458,18.0494,16.5256,10.4918,10.7255,6.74665,6.92295,41.2224,23.1014,1383.12,71.1208
252,704.844,197.905,272.904,418.88,10.0473,14.2952,11.574,46.5506,17.1507,16.5256,11.3541,11.1005,7.17092,7.089,42.1809,22.6238,1272.91,79.1746
258,751.287,212.298,300.727,460.35,4.93537,14.5382,14.8097,52.1671,17.1507,18.1542,13.0786,9.97562,6.88807,7.42109,46.0149,22.2915,1093.91,86.0894
264,764.293,214.683,310.195,495.518,10.8145,10.1406,11.6271,50.5624,15.3533,16.5256,14.803,9.60067,6.46381,6.25877,44.0979,21.7724,909.534,92.139
270,756.341,188.608,278.561,477.314,11.2474,9.45703,8.64967,41.7364,13.556,13.2684,12.2163,8.85077,5.47385,5.59458,38.3468,21.4401,748.549,97.0457
276,643.308,175.617,253.695,438.028,5.01133,5.81134,7.62427,36.9222,11.7586,12.4541,11.3541,6.976,4.76675,4.76435,32.5957,20.7964,673.678,101.272
282,617.545,156.567,223.493,397.438,7.82934,2.15046,5.90767,28.0962,6.36639,9.19685,7.04286,5.10124,3.21111,3.43597,24.9276,20.4641,562.162,104.989
288,568.158,134.924,196.422,368.939,9.00668,10.0571,5.47473,22.4797,5.46769,7.56824,5.31837,3.22648,2.36258,2.93783,18.218,20.1319,433.039,107.902
294,487.613,126.28,180.223,344.987,8.4294,10.3685,7.0546,16.0608,3.6703,5.12533,6.18061,3.22648,1.79689,2.27365,14.3839,19.9657,390.363,110.476
300,438.828,114.26,162.906,323.804,5.22401,8.25699,6.30264,14.456,4.569,5.12533,4.45613,2.47658,1.51404,1.7755,13.4254,19.6127,303.277,112.585
306,381.198,100.065,144.945,300.534,2.7478,6.64681,4.30501,11.2466,2.77161,3.49672,4.45613,1.72667,1.08978,1.27736,9.5913,19.3012,287.146,114.381
312,402.408,89.1676,127.889,281.67,1.70719,8.94056,7.59389,11.2466,2.77161,3.49672,4.45613,1.72667,1.2312,1.27736,10.5498,19.7581,283.806,116.036
318,306.479,79.83,116.145,263.14,2.2237,5.11258,3.38595,9.64185,3.6703,3.49672,2.73164,1.72667,1.08978,1.27736,10.5498,19.4881,271.652,117.655
324,277.873,67.7303,102.795,243.388,2.94529,3.75304,2.78591,9.64185,0.974216,2.68241,3.59389,2.10162,1.08978,1.27736,8.63279,19.2389,222.223,119.083
330,258.562,61.8507,95.7067,232.632,2.45157,3.58595,7.62427,10.4442,3.6703,2.68241,3.59389,1.35172,0.948358,1.44341,9.5913,19.2804,218.742,120.369
336,259.908,59.1613,90.9547,221.376,1.58566,3.92773,2.59602,10.4442,3.6703,2.68241,3.59389,1.35172,0.806936,1.27736,8.63279,19.1143,191.701,121.649
342,223.425,54.2259,83.3898,210.274,3.04403,6.76833,2.67197,8.03712,0.974216,1.86811,2.73164,0.976767,0.665514,1.27736,7.67427,18.9274,180.984,122.782
348,207.467,51.5208,79.2713,200.124,1.69959,3.14543,4.80632,8.03712,2.77161,1.86811,2.73164,1.35172,0.948358,1.11132,6.71575,18.9274,176.146,123.829
354,199.869,48.1871,73.0334,188.436,2.67184,2.42389,2.98339,6.43239,1.87291,1.86811,2.73164,0.601814,0.665514,0.945271,6.71575,18.6159,178.076,124.915
360,181.438,45.5133,69.2879,179.761,4.50241,1.81627,5.09495,5.63003,0.0755206,2.68241,1.8694,0.976767,0.665514,1.27736,7.67427,18.6159,187.059,126.017
366,174.021,41.2343,63.8879,171.167,3.19595,3.6619,2.61121,8.03712,3.6703,2.68241,2.73164,1.35172,0.524092,1.11132,6.71575,18.6367,175.288,127.117
372,170.384,40.1007,61.2634,164.67,2.45916,2.09729,5.45954,6.43239,2.77161,1.86811,1.8694,0.976767,0.665514,1.27736,6.71575,18.4706,210.22,128.225
378,182.005,39.8344,59.4931,157.206,4.09984,3.73785,1.97318,5.63003,1.87291,1.86811,1.8694,0.601814,0.806936,1.27736,6.71575,18.2837,199.506,129.437
384,163.077,35.4969,55.7325,151.77,3.26431,2.21882,4.61643,6.43239,1.87291,1.86811,1.8694,0.976767,0.382671,0.945271,6.71575,18.1591,205.614,130.653
390,167.825,33.0885,52.9928,144.222,0.788104,3.36569,3.12771,5.63003,1.87291,1.05381,1.8694,1.35172,0.665514,1.27736,7.67427,18.2006,193.915,131.854
396,170.228,32.976,54.1735,140.595,4.82143,5.4012,4.8443,5.63003,2.77161,1.86811,1.8694,0.976767,0.382671,0.945271,5.75724,17.9514,200.232,133.012
402,172.019,33.3885,51.8483,134.415,2.80857,2.89479,2.60361,5.63003,0.974216,2.68241,1.8694,0.976767,0.524092,0.779224,6.71575,18.1175,224.326,134.268
408,181.407,32.5203,50.2909,128.887,3.08961,1.48968,3.4771,6.43239,1.87291,2.68241,0.144915,0.976767,0.665514,1.11132,8.63279,17.7853,222.055,135.63
414,159.795,34.9512,50.3225,126.558,1.98063,1.96058,4.44173,6.43239,0.0755206,2.68241,1.8694,0.601814,0.806936,1.11132,6.71575,17.7853,236.002,137.111
420,160.822,37.3656,51.5629,125.717,2.77818,5.19613,3.62901,6.43239,2.77161,2.68241,1.8694,1.72667,0.665514,1.27736,6.71575,17.4323,223.205,138.421
426,159.929,39.823,55.9108,124.888,1.83631,9.14563,3.58344,8.03712,1.87291,2.68241,2.73164,0.976767,0.665514,1.11132,8.63279,17.4738,255.465,139.903
432,203.176,38.7734,54.7997,122.079,3.55295,3.76064,3.02137,8.03712,1.87291,1.05381,1.8694,1.35172,0.806936,1.11132,7.67427,17.4738,271.509,141.55
438,163.665,38.2136,53.8409,118.346,2.10216,1.18587,4.31261,8.03712,2.77161,2.68241,1.00716,1.35172,0.948358,1.44341,6.71575,17.2869,296.313,143.27
444,190.637,41.7007,58.5039,118.927,4.43405,2.47705,4.80632,8.03712,1.87291,2.68241,1.8694,1.72667,0.806936,1.11132,8.63279,17.2869,297.65,144.965
450,201.839,43.7457,58.1726,118.554,2.17812,1.73272,2.8011,8.83948,1.87291,1.86811,2.73164,0.976767,0.665514,1.27736,8.63279,17.1415,296.35,146.701
456,217.168,46.1899,61.2936,119.891,3.37065,8.33294,5.8621,8.83948,2.77161,2.68241,1.8694,0.976767,0.948358,1.11132,8.63279,16.9339,327.354,148.724
462,215.471,49.1792,64.3321,118.761,2.08697,1.28461,1.04653,8.83948,2.77161,2.68241,2.73164,1.72667,0.806936,1.44341,8.63279,16.8093,307.16,150.569
468,210.388,44.9549,61.871,116.674,3.05923,7.41393,3.03656,9.64185,3.6703,2.68241,1.8694,1.72667,0.948358,1.27736,10.5498,16.6016,291.317,152.305
474,245.997,48.608,64.8302,116.807,2.99086,2.42389,6.27986,8.83948,1.87291,3.49672,2.73164,1.35172,0.806936,1.27736,8.63279,16.4355,289.762,153.991
480,239.544,50.7162,66.4085,118.372,1.98823,1.89982,7.35083,9.64185,1.87291,4.31102,2.73164,1.72667,0.948358,1.27736,9.5913,16.477,282.352,155.728
486,225.642,50.0824,65.0084,115.201,1.8667,3.09986,4.89747,8.83948,2.77161,2.68241,1.8694,1.72667,1.08978,1.27736,7.67427,16.2901,288.008,157.479
492,212.422,48.4808,61.6185,111.696,4.22897,1.95298,1.67696,8.83948,2.77161,1.86811,1.8694,1.35172,0.948358,1.27736,8.63279,16.1448,310.063,159.26
498,227.404,46.3747,58.4979,109.474,1.1527,1.99856,2.63399,9.64185,1.87291,2.68241,4.45613,1.35172,0.948358,1.27736,9.5913,15.9786,240.504,160.85
504,225.28,46.8458,57.9352,109.018,1.87429,1.37575,1.0921,8.83948,2.77161,2.68241,1.8694,0.976767,0.948358,1.27736,8.63279,15.9786,278.572,162.391
510,226.907,49.839,61.0197,109.347,3.68207,8.67473,5.08736,9.64185,1.87291,1.86811,1.8694,0.976767,0.806936,1.60946,10.5498,15.7917,274.954,164.044
516,222.879,50.0979,60.9094,107.641,3.94033,3.56317,5.08736,8.83948,0.974216,2.68241,3.59389,1.35172,0.948358,1.27736,8.63279,15.6256,272.135,165.684
522,223.41,48.7131,62.8778,109.368,1.28942,3.80621,4.56326,8.03712,2.77161,2.68241,3.59389,1.35172,0.806936,1.11132,8.63279,15.4803,282.07,167.444
528,225.354,47.8562,61.1454,107.249,3.26431,6.8291,2.48968,6.43239,1.87291,1.86811,1.8694,1.35172,0.806936,1.27736,6.71575,15.4595,269.258,169.095
534,223.894,46.0774,60.8881,105.62,1.77555,2.66693,5.07216,8.83948,1.87291,2.68241,1.8694,1.35172,0.948358,1.27736,8.63279,15.2726,287.623,170.823
540,231.684,48.3005,62.799,109.288,5.79369,4.89992,3.16568,8.03712,1.87291,2.68241,1.8694,1.72667,0.948358,1.27736,6.71575,15.1272,282.049,172.45
546,223.411,51.9556,66.502,110.284,4.45684,3.26695,2.02635,7.23476,0.974216,1.05381,1.8694,0.976767,0.948358,1.27736,8.63279,14.9819,281.924,174.113
552,244.192,47.9087,62.0428,107.709,1.91227,2.05932,2.63399,8.03712,1.87291,3.49672,1.00716,0.976767,1.2312,1.11132,8.63279,14.9611,273.42,175.784
558,208.211,44.6142,58.3341,108.234,1.25904,2.39351,2.55044,6.43239,3.6703,1.86811,3.59389,1.35172,0.806936,1.27736,8.63279,14.8157,266.467,177.341
564,221.26,43.1176,58.6546,108.26,5.25439,7.63419,1.75291,8.03712,1.87291,2.68241,1.8694,0.601814,0.806936,1.27736,7.67427,14.6288,266.986,178.916
570,203.192,42.0974,54.4762,103.099,2.20091,2.57579,2.20864,8.83948,2.77161,2.68241,2.73164,1.35172,0.806936,1.27736,7.67427,14.6288,301.875,180.579
576,199.827,38.4887,51.455,98.5989,4.13022,0.836492,1.96559,7.23476,3.6703,1.86811,1.00716,1.72667,0.665514,1.11132,7.67427,14.4627,260.665,182.351
582,183.49,40.8319,53.222,99.4421,4.38088,4.28471,5.63424,8.03712,3.6703,1.86811,1.00716,0.976767,0.806936,1.27736,7.67427,14.3174,247.286,183.919
588,206.446,44.7358,57.0557,100.476,1.95785,2.02894,3.39355,8.03712,1.87291,1.86811,1.8694,0.601814,0.665514,1.11132,7.67427,13.9643,254.263,185.435
594,213.35,43.7595,56.603,99.2838,4.38088,4.01128,2.86946,8.03712,2.77161,3.49672,2.73164,0.976767,0.524092,1.11132,7.67427,14.1512,228.583,186.896
600,205.454,40.4113,51.4389,95.5602,2.20091,1.53525,1.66176,7.23476,1.87291,1.86811,1.8694,1.35172,0.806936,1.11132,6.71575,14.1512,250.107,188.314
606,206.891,38.4616,50.2086,94.1868,3.37825,0.479518,0.765491,7.23476,0.974216,2.68241,1.8694,0.601814,0.665514,1.27736,7.67427,13.9851,241.255,189.802
612,202.638,37.9709,49.2786,94.1447,2.43638,2.68972,2.48968,7.23476,2.77161,1.86811,1.8694,0.601814,0.806936,1.11132,7.67427,13.7774,318.649,191.402
618,181.421,38.7065,51.1535,92.3674,2.0414,4.01128,2.70235,6.43239,2.77161,1.05381,1.8694,0.226862,0.806936,0.945271,6.71575,13.819,272.578,193.073
624,183.375,38.5254,54.4072,94.3234,2.23889,3.41126,1.21363,7.23476,0.974216,2.68241,1.8694,0.976767,0.806936,1.27736,8.63279,13.6528,258.644,194.653
630,190.774,37.0155,50.7362,89.7088,2.17053,4.91511,1.67696,8.03712,2.77161,1.86811,0.144915,0.976767,0.806936,1.27736,7.67427,13.6321,237.276,196.143
636,198.22,35.8565,47.2949,87.1,1.49451,2.46946,2.277,6.43239,2.77161,1.86811,1.8694,0.226862,0.665514,1.27736,7.67427,13.4452,238.315,197.559
642,190.193,36.6791,47.1837,86.7694,2.23889,1.88463,2.52006,5.63003,2.77161,1.86811,1.00716,0.976767,0.948358,1.11132,6.71575,13.279,251.794,198.981
648,185.012,36.1822,47.8027,87.0158,1.692,2.96315,2.39094,7.23476,0.0755206,1.05381,1.8694,0.976767,0.806936,1.27736,6.71575,13.3206,245.643,200.46
654,182.741,34.4606,43.8711,83.3077,1.02357,2.7201,0.332544,7.23476,0.974216,2.68241,0.144915,0.976767,0.806936,1.44341,6.71575,13.1337,237.062,201.986
660,173.56,33.9307,42.1929,81.2843,2.29965,4.59611,2.35296,6.43239,1.87291,3.49672,1.8694,1.35172,0.806936,1.11132,5.75724,13.1544,205.7,203.242
666,176.598,35.4551,43.5205,81.824,1.74517,0.244067,0.0667004,5.63003,1.87291,1.05381,1.00716,1.35172,0.665514,0.945271,7.67427,13.0299,228.041,204.591
672,216.517,34.3265,42.0279,79.5443,3.08201,1.63399,2.69476,7.23476,0.974216,1.86811,1.8694,0.976767,0.665514,0.779224,5.75724,12.9883,247.912,206.007
678,162.808,32.1141,38.8985,77.8205,1.13751,2.54541,4.5025,7.23476,0.974216,1.86811,0.144915,0.601814,0.665514,1.11132,5.75724,12.8014,229.732,207.405
684,164.991,31.3951,39.0796,78.0352,0.772913,2.49224,2.69476,7.23476,1.87291,1.86811,1.00716,0.976767,0.948358,1.11132,7.67427,12.8222,236.715,208.786
690,172.178,31.014,39.4844,77.9565,3.30988,1.47449,0.507242,6.43239,0.974216,1.05381,2.73164,1.35172,0.665514,1.11132,6.71575,12.6561,234.03,210.195
696,155.987,31.6901,40.9376,78.36,2.70982,6.55567,2.24662,6.43239,1.87291,2.68241,2.73164,0.976767,0.665514,1.44341,7.67427,12.4692,245.656,211.741
702,165.934,33.1217,40.7941,76.5316,2.48195,1.55804,0.651557,7.23476,1.87291,1.86811,1.8694,1.35172,0.524092,1.27736,6.71575,12.4899,243.488,213.158
708,184.998,29.9073,40.3999,76.437,2.06419,2.44667,1.0921,6.43239,0.0755206,2.68241,1.00716,0.976767,0.524092,1.27736,6.71575,12.4899,254.577,214.615
714,193.647,31.1855,41.331,77.0971,0.567828,2.28717,4.16829,7.23476,1.87291,2.68241,2.73164,0.976767,0.665514,1.11132,7.67427,12.303,242.68,216.129
720,172.136,30.643,41.6125,77.6312,0.780508,0.775731,2.35296,6.43239,1.87291,2.68241,1.00716,0.976767,0.665514,1.11132,6.71575,12.1161,255.881,217.604
726,168.403,29.9661,40.0856,75.6509,2.82376,3.06948,2.64919,8.03712,0.974216,1.86811,0.144915,1.35172,0.806936,1.11132,7.67427,12.1577,268.064,219.125
732,180.359,29.5146,39.079,74.2575,2.34523,1.7707,1.32756,7.23476,0.974216,1.05381,1.8694,1.35172,0.806936,1.11132,9.5913,11.95,274.143,220.752
738,173.516,28.2344,38.5194,74.3675,1.1527,1.9302,1.64657,6.43239,1.87291,1.86811,2.73164,0.976767,0.806936,1.11132,8.63279,11.8254,234.138,222.245
744,176.427,32.4028,41.0487,73.7387,0.970402,3.45683,0.264185,5.63003,1.87291,1.86811,1.8694,0.976767,0.806936,1.11132,6.71575,11.8047,240.239,223.712
750,178.726,34.0044,42.08,72.958,1.59325,1.80108,1.48707,5.63003,1.87291,1.86811,1.8694,1.35172,0.665514,0.779224,5.75724,11.8254,251.694,225.256
756,159.426,33.9669,42.6379,72.1145,2.5655,3.63912,3.46191,8.03712,1.87291,2.68241,1.00716,0.976767,0.948358,1.11132,7.67427,11.6801,244.1,226.789
762,167.639,30.6211,42.4838,73.0993,1.83631,1.80868,2.65678,6.43239,1.87291,2.68241,1.8694,0.976767,0.665514,1.27736,7.67427,11.4932,255.326,228.286
768,188.247,31.303,40.9262,70.8674,1.36538,3.15302,1.63138,5.63003,0.974216,1.86811,1.8694,0.976767,0.806936,1.27736,8.63279,11.4309,271.169,229.867
774,179.374,32.0431,41.0643,71.3336,2.7478,2.72769,3.04415,8.03712,1.87291,2.68241,1.00716,0.601814,0.806936,1.27736,6.71575,11.3063,305.376,231.65
780,160.717,32.5897,43.3544,72.7113,1.61604,4.36066,1.38073,8.83948,0.974216,3.49672,1.00716,1.35172,0.806936,0.945271,8.63279,11.3478,286.909,233.415
786,173.578,36.0361,47.8803,76.6351,2.07938,3.69988,3.83409,7.23476,1.87291,1.86811,1.8694,0.601814,0.806936,1.27736,5.75724,11.1401,280.319,235.111
792,219.788,37.8991,50.5758,79.4537,2.80097,1.99096,0.97057,6.43239,2.77161,1.86811,1.8694,1.72667,0.806936,1.27736,8.63279,11.1609,260.251,236.739
798,191.572,38.1978,49.7253,78.8302,3.78082,7.11012,2.87705,5.63003,2.77161,1.86811,1.00716,1.35172,0.948358,1.11132,6.71575,11.0363,243.594,238.267
804,189.302,38.8376,51.9851,79.8992,4.36569,3.48721,3.97081,7.23476,1.87291,2.68241,1.00716,0.976767,0.806936,0.779224,6.71575,10.8286,245.778,239.719
810,189.923,40.2063,51.0878,79.1549,3.06682,4.41383,4.03158,5.63003,2.77161,1.05381,2.73164,0.976767,0.806936,1.27736,6.71575,10.7871,257.888,241.181
816,194.82,37.9684,47.8325,76.5511,4.15301,1.9302,1.98837,6.43239,0.0755206,1.86811,1.00716,1.72667,0.948358,1.11132,6.71575,10.6417,236.453,242.74
822,175.159,36.0198,48.9747,78.4161,1.6844,6.09996,1.69974,7.23476,1.87291,1.05381,0.144915,0.976767,0.524092,1.27736,7.67427,10.5379,216.892,244.089
828,172.056,38.5229,49.3817,78.9662,0.894444,3.30493,3.54546,6.43239,1.87291,3.49672,1.00716,0.976767,0.806936,1.27736,6.71575,10.4964,232.701,245.396
834,192.182,38.6931,49.4025,78.7302,2.69463,3.09986,3.40874,6.43239,0.974216,2.68241,1.8694,1.35172,0.665514,1.44341,8.63279,10.2887,233.429,246.763
840,166.279,37.1569,46.8793,77.2212,2.64906,2.50743,1.06172,7.23476,0.974216,1.86811,0.144915,0.976767,0.948358,0.945271,7.67427,10.351,239.264,248.153
846,168.989,35.5172,45.995,77.0065,1.81353,3.47202,2.23143,6.43239,1.87291,2.68241,1.00716,0.976767,0.806936,1.11132,7.67427,10.2264,232.016,249.551
852,162.323,37.3811,47.6944,77.918,3.29469,2.95555,2.8011,7.23476,0.974216,2.68241,1.8694,0.976767,0.948358,1.27736,7.67427,10.1434,269.197,251.016
858,150.207,36.5161,46.6145,77.0692,3.24152,0.988396,3.45431,6.43239,2.77161,2.68241,1.00716,1.35172,0.806936,0.945271,6.71575,10.1641,264.253,252.587
864,152.811,33.2159,44.3088,77.2106,2.02621,1.05675,2.55044,8.03712,2.77161,2.68241,1.00716,0.976767,0.806936,1.11132,7.67427,9.81111,248.453,254.082
870,157.795,35.2763,45.0513,75.8537,1.64642,1.25423,1.61619,6.43239,2.77161,1.86811,1.00716,1.35172,0.806936,1.27736,8.63279,9.81111,247.867,255.504
876,184.026,34.8217,44.6376,73.9415,2.95289,1.14789,0.621175,6.43239,0.974216,2.68241,1.8694,1.35172,0.948358,1.44341,7.67427,9.83187,260.141,257.027
882,179.619,33.5533,44.3831,73.9835,0.985593,0.418757,2.58083,8.03712,2.77161,2.68241,1.8694,1.72667,0.524092,1.27736,6.71575,9.64498,254.654,258.577
888,162.053,32.5243,42.3601,75.251,2.81616,1.33777,3.78852,7.23476,2.77161,1.86811,1.8694,0.976767,0.948358,1.44341,7.67427,9.68651,259.867,260.079
894,160.974,29.1739,37.1732,73.1921,0.993189,2.00615,2.6188,6.43239,0.0755206,1.86811,1.00716,1.35172,0.948358,1.11132,6.71575,9.56191,240.213,261.637
900,161.799,31.0489,40.3391,74.6903,2.44397,1.97577,2.4517,7.23476,1.87291,2.68241,1.00716,0.976767,0.806936,1.11132,8.63279,9.47885,188.206,262.854
906,155.966,31.8808,41.5361,73.9622,2.80857,3.28214,1.53264,6.43239,1.87291,2.68241,1.8694,1.35172,0.665514,1.11132,7.67427,9.35425,203.668,264.039
912,191.081,31.4246,38.7359,71.2797,2.25408,3.37329,0.590793,6.43239,1.87291,1.05381,1.00716,0.976767,0.806936,1.27736,8.63279,9.31272,207.023,265.292
918,133.457,27.6295,37.4347,70.8448,1.81353,2.86441,0.704726,7.23476,1.87291,1.86811,0.144915,0.976767,0.665514,1.44341,7.67427,9.16736,211.011,266.549
924,142.727,25.3164,35.4422,69.3668,0.803296,0.502304,3.85688,6.43239,0.974216,2.68241,1.00716,0.976767,0.524092,1.11132,5.75724,9.16736,205.02,267.766
930,137.487,25.1598,35.3245,70.242,1.3274,2.28717,1.83646,6.43239,1.87291,1.86811,1.8694,1.35172,0.665514,1.27736,6.71575,9.18812,202.049,268.994
936,147.481,24.1392,33.639,68.7011,3.36305,3.16822,3.43912,4.0253,0.974216,1.05381,1.00716,0.601814,0.665514,0.945271,5.75724,7.31917,213.52,270.312
942,147.536,25.1976,33.6015,67.8204,1.51729,1.53525,0.104678,2.42058,1.87291,1.05381,1.00716,0.226862,0.665514,1.11132,3.8402,7.33994,225.624,271.62
948,146.62,23.3391,31.0063,66.2368,0.301978,0.874468,0.841446,3.22294,0.0755206,1.86811,0.144915,1.72667,0.665514,1.11132,4.79872,7.17381,228.519,273.032
954,154.102,23.2958,28.8943,63.9915,0.757721,0.312424,1.84406,3.22294,0.974216,1.86811,0.144915,0.976767,0.665514,1.11132,3.8402,7.19458,220.396,274.515
960,152.681,22.4952,28.6629,63.5821,1.16789,2.64415,6.2039,4.0253,0.974216,1.86811,1.8694,0.601814,0.948358,1.11132,5.75724,8.35748,242.765,275.971
966,159.508,25.618,31.9181,65.586,2.5731,0.813706,2.13269,4.82767,2.77161,2.68241,1.8694,1.35172,0.806936,1.11132,5.75724,8.48207,238.51,277.446
972,168.291,26.3895,33.7726,68.2448,0.651381,0.525089,1.25161,4.0253,0.0755206,1.05381,2.73164,0.976767,0.948358,1.60946,7.67427,8.35748,250.16,278.932
978,154.963,25.4346,32.449,67.3901,1.57806,2.20363,1.63138,4.0253,1.87291,1.05381,1.8694,1.35172,0.665514,1.44341,6.71575,8.29518,234.435,280.375
984,150.037,24.3331,31.5425,66.9076,1.29702,2.31755,4.35818,2.42058,2.77161,1.86811,1.8694,0.976767,0.665514,1.27736,4.79872,8.17058,269.18,281.866
990,154.667,26.1898,36.0082,69.0047,1.13751,0.730159,1.4339,4.82767,0.974216,1.86811,1.8694,0.976767,0.806936,1.44341,6.71575,8.14982,261.223,283.433
996,148.54,23.7657,32.6687,66.4304,2.9301,1.16309,4.09234,4.0253,0.974216,1.05381,1.00716,1.35172,0.806936,0.779224,7.67427,8.14982,238.821,284.882
1002,150.336,25.5369,34.7623,66.6453,4.30492,3.27455,3.26443,4.0253,1.87291,1.86811,1.8694,0.601814,0.806936,1.11132,6.71575,7.98369,240.129,286.373
1008,159.742,25.8713,35.3558,66.7868,2.20091,1.98337,1.9428,3.22294,1.87291,2.68241,1.8694,1.35172,0.665514,1.11132,5.75724,8.00445,248.472,287.796
1014,151.456,23.0301,33.3275,65.1294,2.0414,2.05172,1.91242,4.0253,2.77161,1.86811,0.144915,0.601814,1.08978,1.11132,5.75724,7.81756,261.412,289.416
1020,147.845,25.5205,33.2471,64.6099,2.08697,0.920039,0.962975,4.0253,0.974216,2.68241,0.144915,1.72667,0.948358,0.945271,5.75724,7.83832,234.948,290.914
1026,151.339,25.515,32.9791,64.2373,0.575424,1.49727,1.20603,4.0253,0.0755206,1.86811,1.8694,1.35172,0.806936,1.11132,5.75724,7.6722,254.94,292.345
1032,184.79,25.8549,32.9416,63.9067,0.909636,2.61377,1.39592,5.63003,1.87291,1.86811,2.73164,0.976767,0.948358,1.27736,7.67427,7.6722,251.15,293.864
1038,153.459,25.0561,31.6224,63.2768,0.833679,1.30739,2.63399,4.0253,1.87291,1.86811,1.8694,0.976767,0.806936,1.27736,5.75724,7.4853,230.234,295.3
1044,149.377,24.1811,32.03,63.0878,3.75803,4.14799,3.58344,5.63003,1.87291,1.86811,1.00716,0.601814,0.665514,0.945271,7.67427,7.46453,217.03,296.67
1050,159.928,27.7303,37.3104,67.4575,2.61867,0.942825,1.35035,5.63003,1.87291,1.05381,1.8694,1.35172,0.665514,0.945271,4.79872,7.33994,231.986,298.02
1056,140.963,24.705,34.3871,66.975,0.750126,0.676993,5.33041,5.63003,1.87291,1.05381,1.00716,0.976767,0.948358,1.11132,5.75724,7.29841,213.682,299.469
1062,135.75,26.0217,34.6064,67.3734,1.16789,1.80108,2.07952,3.22294,1.87291,1.86811,1.8694,0.976767,0.806936,1.27736,6.71575,7.17381,224.582,300.845
1068,134.085,23.154,31.7993,65.5801,2.04899,1.7707,4.4949,3.22294,0.974216,1.05381,1.8694,0.976767,0.665514,0.945271,6.71575,7.17381,228.888,302.241
1074,133.834,21.7037,29.9468,64.431,2.14774,2.02894,2.83148,4.0253,0.0755206,1.05381,1.00716,1.35172,0.806936,1.11132,5.75724,7.17381,204.388,303.533
1080,141.201,22.4559,31.5951,63.691,1.28183,0.441542,0.537624,3.22294,-0.823175,2.68241,1.8694,0.976767,0.665514,0.945271,6.71575,6.98691,210.045,304.77
1086,131.521,21.3515,29.7101,62.1791,0.347552,1.37575,2.58083,3.22294,0.974216,1.86811,0.144915,0.976767,0.806936,1.27736,5.75724,6.98691,214.89,306.02
1092,125.013,19.2153,29.0593,62.0581,1.92746,0.456733,0.735108,3.22294,0.974216,1.86811,1.8694,0.976767,0.665514,1.11132,4.79872,6.82079,224.613,307.245
1098,122.753,18.0863,27.4502,60.3407,3.53016,1.1403,2.07952,2.42058,-0.823175,0.239501,1.00716,1.35172,0.665514,1.11132,5.75724,6.84155,200.397,308.534
1104,124.188,18.1949,25.6333,58.606,0.423509,0.411161,1.4339,2.42058,2.77161,0.239501,1.8694,1.35172,0.806936,1.11132,5.75724,6.80002,199.069,309.748
1110,127.601,16.8471,23.9537,57.1539,1.60844,1.07194,0.583197,4.0253,0.0755206,1.05381,0.144915,1.35172,0.806936,1.11132,4.79872,6.82079,182.602,310.871
1116,121.579,14.6548,22.2288,55.991,0.438701,0.547875,0.811064,2.42058,1.87291,0.239501,0.144915,0.976767,0.665514,0.945271,4.79872,6.61312,175.828,311.949
1122,116.884,13.5706,22.0986,56.2329,1.63123,1.82387,2.22384,4.0253,0.0755206,1.05381,0.144915,0.976767,0.665514,1.27736,4.79872,6.65466,176.34,313.019
1128,117.642,13.7613,21.7196,55.3114,0.423509,1.15549,0.370522,3.22294,1.87291,1.86811,1.8694,1.35172,0.665514,1.11132,4.79872,6.53006,165.261,314.002
1134,111.877,12.9546,21.6762,54.3103,2.52752,1.17068,1.66936,4.0253,0.974216,1.05381,1.8694,0.976767,0.665514,1.11132,3.8402,6.48853,168.945,315.02
1140,109.947,12.1532,21.6004,54.1627,0.879253,4.26192,3.54546,3.22294,0.974216,1.05381,1.8694,0.976767,0.665514,1.44341,3.8402,6.53006,154.013,315.945
1146,101.688,11.8748,19.7304,52.491,0.0665105,0.320019,0.332544,3.22294,0.0755206,0.239501,0.144915,0.601814,0.806936,1.27736,4.79872,6.34317,171.694,316.921
1152,113.173,11.8096,18.5639,51.4304,0.643785,0.0010212,2.44411,2.42058,1.87291,1.05381,0.144915,1.35172,0.665514,0.779224,4.79872,6.3224,187.719,317.971
1158,90.0316,10.5651,16.8685,50.5957,0.203233,-0.0141692,1.69974,2.42058,0.0755206,0.239501,0.144915,0.601814,0.524092,1.11132,4.79872,6.36393,175.99,319.035
1164,91.8306,9.99192,16.1453,49.8931,0.431105,2.72769,0.864233,4.0253,0.974216,1.86811,1.8694,0.976767,0.524092,1.11132,4.79872,6.3224,177.757,320.112
1170,100.23,11.209,16.292,50.0356,0.719743,1.33777,1.06931,4.0253,0.974216,1.05381,0.144915,0.226862,0.665514,1.27736,4.79872,6.17704,173.947,321.217
1176,99.1328,12.0546,17.9716,50.2629,2.84655,0.859278,0.97057,3.22294,1.87291,1.05381,1.00716,0.601814,0.665514,1.27736,5.75724,6.15627,187.688,322.373
1182,93.2955,12.8069,19.1387,50.2892,2.51233,2.49224,2.2922,3.22294,0.0755206,0.239501,0.144915,0.226862,0.524092,1.11132,1.92317,6.17704,170.506,323.4
1188,92.3544,12.8506,18.2702,48.9996,0.666573,0.714969,0.324949,4.0253,0.974216,0.239501,1.00716,0.226862,0.524092,0.945271,4.79872,6.1978,153.81,324.37
1194,104.371,12.038,17.1182,47.6186,0.674168,0.357995,0.727513,1.61821,0.974216,0.239501,1.00716,0.226862,0.806936,1.27736,3.8402,6.01091,157.307,325.352
1200,91.6316,10.6193,15.4757,46.6496,1.61604,2.12767,1.01614,2.42058,-0.823175,2.68241,1.00716,0.976767,0.806936,0.945271,3.8402,6.01091,159.016,326.299
1206,89.5424,10.7339,15.7042,46.0191,1.00838,1.36056,0.0515093,0.815849,0.974216,1.05381,1.8694,0.976767,0.382671,1.11132,3.8402,5.84478,175.173,327.292
1212,93.3102,9.07936,13.1009,44.3379,0.95521,0.509899,0.264185,3.22294,1.87291,1.05381,0.144915,0.976767,0.382671,0.779224,4.79872,5.84478,189.743,328.33
1218,83.1402,8.19983,12.2994,43.2975,0.256404,1.11751,1.83646,3.22294,0.974216,0.239501,1.00716,0.601814,0.524092,0.945271,3.8402,5.84478,173.042,329.334
1224,83.8808,8.4293,13.0627,43.2603,0.317169,0.692183,2.21624,0.815849,-0.823175,1.05381,0.144915,0.976767,0.382671,1.11132,2.88169,5.84478,184.929,330.365
1230,81.6507,9.41788,14.4683,44.1839,2.38321,1.58842,1.88963,1.61821,0.0755206,1.05381,0.144915,0.976767,0.665514,0.945271,4.79872,5.80325,196.242,331.488
1236,84.381,9.03,14.5771,43.6583,0.233616,1.27701,1.06172,1.61821,0.0755206,0.239501,1.00716,0.226862,0.665514,1.11132,5.75724,5.65788,159.126,332.491
1242,83.8421,10.8152,15.8614,43.4617,1.18308,0.752945,0.940188,2.42058,-0.823175,1.86811,1.8694,0.601814,0.524092,0.945271,3.8402,5.67865,169.937,333.479
1248,83.2483,11.0555,15.6059,43.7698,0.628594,2.59098,1.86684,1.61821,0.0755206,-0.574803,1.00716,0.601814,0.524092,0.945271,4.79872,5.65788,169.232,334.46
1254,79.8371,8.67474,13.5746,42.4205,0.051319,1.28461,1.30477,2.42058,0.0755206,1.05381,1.00716,0.976767,0.665514,0.779224,3.8402,5.67865,159.686,335.437
1260,78.0404,8.29231,13.689,41.974,-0.00185106,0.0921635,0.0667004,2.42058,0.0755206,1.05381,0.144915,0.976767,0.665514,0.945271,3.8402,5.67865,162.393,336.42
1266,72.4197,7.01322,11.4969,40.5799,-0.0550211,1.20866,0.568006,3.22294,0.974216,0.239501,1.00716,1.35172,0.665514,0.945271,3.8402,5.47099,173.144,337.469
1272,82.6252,5.82132,10.2307,39.6053,0.294382,0.411161,0.461669,2.42058,2.77161,0.239501,0.144915,0.976767,0.524092,0.945271,2.88169,5.47099,154.991,338.501
1278,72.5743,6.93113,12.4459,40.798,0.803296,0.95042,3.41634,3.22294,0.0755206,1.05381,0.144915,0.601814,0.524092,0.779224,4.79872,5.51252,139.301,339.388
1284,78.6057,8.92016,14.6963,41.729,0.681764,2.88719,0.864233,2.42058,1.87291,1.86811,0.144915,0.601814,0.524092,0.945271,4.79872,5.51252,151.478,340.287
1290,78.7816,7.5704,11.9767,40.2282,0.051319,0.616232,0.0742959,0.815849,0.974216,1.05381,1.8694,1.35172,0.241249,0.779224,4.79872,5.51252,165.143,341.237
1296,71.3658,5.69535,10.3724,39.4452,0.95521,0.464328,2.4593,2.42058,0.974216,1.05381,1.00716,0.226862,0.524092,0.945271,4.79872,5.51252,170.221,342.249
1302,66.3243,4.97364,8.65776,38.1818,0.0968933,0.395971,0.34014,1.61821,0.974216,1.05381,-0.717328,1.35172,0.665514,1.27736,5.75724,5.32563,162.406,343.21
1308,66.71,4.34997,7.80518,37.0128,0.408318,0.168115,0.34014,0.815849,0.974216,1.05381,0.144915,0.601814,0.382671,0.779224,3.8402,5.34639,146.689,344.146
1314,70.9308,4.31726,7.69598,36.3827,1.01598,0.357995,0.248993,2.42058,0.974216,1.05381,1.00716,1.35172,0.382671,0.779224,3.8402,5.32563,139.371,345.035
1320,71.6449,4.6451,7.75579,35.9548,0.241212,0.228877,0.233802,2.42058,0.974216,-0.574803,1.00716,0.601814,0.524092,0.779224,4.79872,5.32563,138.855,345.89
1326,65.876,4.14741,8.94142,36.7029,0.856466,0.380781,0.469264,2.42058,0.0755206,0.239501,0.144915,0.601814,0.524092,0.945271,5.75724,5.32563,168.413,346.794
1332,64.8805,4.02698,8.01799,35.0885,0.324765,0.882063,0.0439137,1.61821,0.974216,1.05381,1.00716,0.976767,0.382671,0.779224,4.79872,5.34639,193.474,347.84
1338,59.3912,3.60583,6.79371,33.8521,-0.0246382,0.0693779,-0.0548283,2.42058,0.0755206,0.239501,1.8694,0.601814,0.524092,0.779224,4.79872,5.18026,171.204,348.893
1344,61.7956,4.04855,7.19791,33.5358,1.65402,0.684588,0.818659,1.61821,0.974216,0.239501,0.144915,0.601814,0.524092,1.11132,4.79872,5.18026,163.818,349.87
1350,70.3499,4.50797,7.38921,33.9107,0.317169,0.958015,1.04653,0.815849,1.87291,1.05381,0.144915,0.601814,0.241249,0.945271,3.8402,5.18026,167.102,350.872
1356,73.5858,4.45854,6.53626,33.6374,0.567828,0.221282,0.233802,2.42058,0.0755206,0.239501,0.144915,0.601814,0.241249,0.945271,5.75724,5.18026,168.788,351.879
1362,67.0087,2.5825,5.65598,32.587,0.294382,0.190901,1.29718,2.42058,2.77161,1.86811,1.00716,0.226862,0.665514,0.779224,4.79872,5.20103,145.66,352.807
1368,66.9501,3.73669,6.15912,33.1553,0.940019,0.206091,0.0818915,2.42058,-0.823175,0.239501,1.8694,0.601814,0.382671,0.945271,4.79872,5.0349,148.783,353.736
1374,70.0515,2.37435,6.36647,33.396,-0.0474254,0.737755,0.20342,2.42058,0.0755206,1.05381,1.00716,0.601814,0.382671,0.779224,4.79872,5.01413,156.424,354.762
1380,61.6502,1.39562,6.2301,32.8497,0.317169,0.844087,0.993357,1.61821,1.87291,1.05381,0.144915,0.226862,0.382671,0.945271,3.8402,4.99337,126.25,355.604
1386,61.6382,1.80562,5.91277,32.4259,0.248808,0.920039,0.704726,2.42058,0.974216,1.05381,0.144915,0.601814,0.524092,0.945271,2.88169,4.99337,137.387,356.385
1392,76.0333,1.80004,5.94547,32.4204,0.188042,0.95042,0.54522,0.815849,0.0755206,0.239501,1.00716,0.601814,0.241249,0.945271,5.75724,4.99337,136.022,357.175
1398,52.5247,1.87662,5.17992,31.6694,0.203233,0.395971,0.552815,2.42058,0.974216,1.05381,1.00716,0.226862,0.241249,0.945271,3.8402,5.0349,137.886,357.976
1404,54.9092,2.28105,5.3546,31.6906,0.605807,0.373185,0.294567,1.61821,0.974216,1.05381,0.144915,0.601814,0.524092,0.779224,4.79872,5.01413,144.364,358.825
1410,57.3792,1.94204,4.70939,31.2827,0.0665105,0.464328,0.393309,2.42058,0.0755206,1.05381,0.144915,0.976767,0.665514,0.945271,4.79872,4.99337,131.489,359.646
1416,58.1653,1.20348,5.46387,31.1215,0.408318,0.137735,0.719917,0.815849,0.0755206,1.05381,0.144915,1.35172,0.524092,0.779224,5.75724,4.80647,144.441,360.522
1422,58.0764,2.8115,5.73181,31.159,1.28183,0.737755,0.507242,1.61821,1.87291,1.05381,0.144915,0.976767,0.382671,0.945271,4.79872,4.82724,136.812,361.359
1428,58.8288,3.64825,6.30035,30.8529,0.453892,0.563065,0.97057,2.42058,0.0755206,1.86811,1.00716,0.976767,0.524092,1.11132,3.8402,4.82724,137.229,362.201
1434,66.3942,3.53339,5.49657,30.4016,-0.00185106,0.456733,0.286971,1.61821,1.87291,1.05381,1.00716,0.601814,0.524092,0.779224,2.88169,4.84801,132.003,363.021
1440,60.098,3.99283,6.60651,30.7401,1.58566,0.752945,0.773086,0.815849,0.974216,1.86811,1.00716,0.976767,0.524092,0.779224,5.75724,4.84801,140.018,363.85
1446,62.1358,5.00976,8.19667,31.851,1.00838,0.730159,0.20342,2.42058,0.974216,0.239501,0.144915,0.601814,0.382671,0.945271,3.8402,4.9103,145.33,364.681
1452,59.8671,3.9434,7.32239,30.9923,0.294382,0.623827,1.04653,0.815849,0.0755206,1.05381,1.00716,1.35172,0.241249,0.779224,3.8402,4.84801,159.779,365.583
1458,57.2472,3.5111,6.46942,30.2669,0.0741062,0.418757,0.651557,1.61821,1.87291,1.05381,0.144915,0.226862,0.382671,0.779224,3.8402,4.66111,144.3,366.5
1464,54.1773,3.08994,5.97188,30.154,0.362744,3.10745,1.98078,3.22294,-0.823175,1.05381,1.00716,0.601814,0.382671,0.613177,3.8402,4.84801,153.738,367.398
1470,55.1999,4.12368,7.04341,30.9062,0.712147,0.768135,1.00855,3.22294,0.974216,0.239501,1.00716,0.226862,0.382671,0.613177,4.79872,4.70264,149.978,368.304
1476,52.2962,3.45609,6.10826,30.2505,0.279191,0.517494,0.180634,2.42058,0.0755206,-0.574803,1.00716,0.601814,0.382671,0.613177,4.79872,4.68188,151.16,369.209
1482,52.2455,2.11603,5.38101,30.0248,0.203233,0.0238068,0.27178,3.22294,0.974216,-0.574803,-0.717328,0.976767,0.524092,0.779224,5.75724,4.70264,150.895,370.125
1488,51.5446,1.91902,4.99263,29.8311,0.810891,1.41373,1.00095,1.61821,0.0755206,1.86811,-1.57957,0.226862,0.382671,0.779224,3.8402,4.68188,141.335,371.037
1494,52.0284,1.65102,4.91607,30.1698,0.765317,0.646612,1.09969,2.42058,1.87291,-0.574803,1.00716,0.976767,0.665514,1.11132,4.79872,4.68188,159.818,371.962
1500,48.2764,2.56433,7.16861,32.3064,1.00078,0.55547,2.06433,2.42058,0.0755206,1.86811,1.00716,0.976767,0.524092,0.613177,3.8402,4.68188,169.252,372.939
1506,49.9836,2.63533,6.97173,31.6625,1.13751,1.96818,1.92001,1.61821,0.0755206,1.05381,1.8694,0.601814,0.524092,0.613177,4.79872,4.55728,168.319,374.002
1512,54.0276,2.47103,7.07537,31.877,0.0665105,1.31499,3.07454,1.61821,0.974216,1.86811,1.00716,-0.14809,0.382671,0.945271,3.8402,4.51575,154.374,374.947
1518,49.9417,3.50479,6.84579,31.3134,0.339956,0.206091,0.507242,1.61821,0.974216,0.239501,1.00716,0.226862,0.524092,0.945271,5.75724,4.51575,166.18,375.906
1524,48.1962,3.50479,7.38146,32.1398,1.35778,1.16309,0.324949,2.42058,0.974216,1.05381,1.8694,0.226862,0.241249,0.945271,5.75724,4.53651,153.925,376.871
1530,50.3237,2.54203,6.34273,31.3455,0.545041,0.33521,0.811064,2.42058,0.0755206,1.86811,1.8694,0.976767,0.382671,1.11132,3.8402,4.51575,153.783,377.801
1536,42.4356,3.3022,7.40858,32.1289,1.31221,0.821302,0.378118,1.61821,0.974216,0.239501,1.00716,0.226862,0.382671,1.11132,5.75724,4.34962,136.191,378.74
1542,44.9945,2.84275,5.80133,31.2273,0.051319,0.395971,0.157847,0.815849,0.0755206,1.86811,1.00716,0.601814,0.382671,1.11132,5.75724,4.32885,136.658,379.584
1548,44.9014,1.75957,4.60349,30.3517,-0.0929997,0.14533,0.0135316,1.61821,1.87291,0.239501,1.00716,0.601814,0.524092,0.945271,4.79872,4.39115,152.919,380.456
1554,44.1211,1.1143,4.34107,29.7552,0.0589147,0.844087,1.18325,2.42058,0.974216,0.239501,1.8694,0.601814,0.241249,0.945271,3.8402,4.37039,137.846,381.294
1560,39.1137,1.03216,4.06749,29.185,0.233616,0.152925,1.02374,1.61821,0.974216,1.86811,0.144915,0.226862,0.241249,0.779224,4.79872,4.39115,123.036,382.103
1566,39.1081,1.25629,4.02363,29.4054,0.0741062,0.563065,0.264185,2.42058,0.974216,1.05381,0.144915,0.976767,0.524092,0.945271,4.79872,4.32885,140.414,382.894
1572,42.842,1.25629,3.64076,28.8029,0.051319,1.43651,0.173038,2.42058,0.0755206,0.239501,1.00716,0.976767,0.524092,0.945271,5.75724,4.32885,161.762,383.813
1578,39.3353,-0.133415,4.16563,28.9803,0.393127,1.51246,0.13506,0.0134851,0.0755206,0.239501,-0.717328,0.976767,0.241249,0.945271,3.8402,4.34962,155.969,384.756
1584,43.39,2.53014,4.91459,29.4157,0.0285318,0.517494,0.089487,3.22294,1.87291,-0.574803,1.00716,1.35172,0.524092,0.945271,2.88169,4.16272,149.401,385.682
1590,44.8854,0.954857,4.29647,28.9207,0.188042,1.67196,0.83385,2.42058,1.87291,1.05381,0.144915,0.226862,0.382671,0.945271,3.8402,4.30809,146.413,386.591
1596,49.3698,0.200421,4.49905,29.4965,-0.115787,0.327614,1.39592,1.61821,0.974216,0.239501,0.144915,0.976767,0.382671,0.945271,4.79872,4.18349,145.804,387.473
1602,48.317,0.42451,3.80432,28.7378,0.0817019,0.699779,-0.138379,2.42058,0.0755206,0.239501,0.144915,1.35172,0.382671,0.613177,4.79872,4.20426,145.656,388.347
1608,45.1334,0.309677,3.68946,28.7378,0.52985,1.2998,0.719917,0.815849,0.974216,1.05381,0.144915,0.601814,0.665514,1.11132,3.8402,4.16272,144.481,389.251
1614,44.7276,0.189272,3.37758,28.2048,0.0361276,0.0389971,0.514838,2.42058,0.0755206,0.239501,1.00716,0.226862,0.524092,0.945271,4.79872,4.16272,158.444,390.288
1620,42.6504,0.0632955,3.32813,27.6661,0.256404,0.471923,0.674344,0.815849,1.87291,1.05381,1.8694,0.226862,0.524092,0.945271,4.79872,4.22502,140.004,391.25
1626,45.9215,-0.0573139,2.97796,27.6229,0.651381,0.130139,0.423691,0.815849,0.974216,-0.574803,-0.717328,0.601814,0.382671,1.11132,2.88169,4.16272,151.461,392.144
1632,51.6309,0.320079,2.62778,27.4288,0.58302,0.912444,0.985761,1.61821,0.974216,1.05381,0.144915,0.226862,0.382671,1.11132,3.8402,4.18349,159.446,393.056
1638,41.9488,0.123121,2.35419,27.461,0.507062,0.327614,0.780682,1.61821,0.0755206,1.05381,1.00716,0.976767,0.382671,0.945271,4.79872,4.20426,154.722,394.011
1644,42.4723,0.194098,2.15717,27.531,-0.085404,0.107354,0.0515093,1.61821,0.974216,-0.574803,1.00716,0.601814,0.524092,0.779224,6.71575,4.20426,161.821,394.98
1650,40.0084,-1.69231,2.69321,27.9834,0.0665105,0.282043,0.0515093,2.42058,0.0755206,0.239501,-0.717328,0.226862,0.382671,0.945271,4.79872,4.18349,166.608,395.983
1656,40.4108,-0.112528,2.46347,27.1538,1.51729,0.509899,0.735108,2.42058,0.0755206,1.05381,0.144915,0.601814,0.241249,0.945271,5.75724,3.9966,167.735,397.041
1662,39.4368,0.795405,2.60547,26.9541,0.210829,0.16052,0.302162,1.61821,0.0755206,1.05381,0.144915,0.226862,0.0998271,0.945271,3.8402,4.18349,173.206,398.027
1668,42.2363,1.03625,2.57834,26.8897,0.765317,0.54028,1.06172,1.61821,0.974216,0.239501,1.8694,0.601814,0.524092,0.779224,3.8402,4.01736,154.717,398.978
1674,46.754,1.43506,2.97721,26.5658,0.423509,0.320019,0.492051,0.815849,-0.823175,0.239501,1.00716,0.601814,0.241249,0.945271,2.88169,4.01736,159.67,399.937
1680,39.5737,0.253923,2.33188,26.1182,0.226021,0.0238068,0.347736,2.42058,-0.823175,1.05381,0.144915,0.226862,0.241249,0.779224,2.88169,4.01736,150.578,400.884
1686,37.7823,-0.294286,1.89955,25.8428,0.203233,0.168115,0.165442,1.61821,0.0755206,1.05381,1.00716,0.976767,0.665514,0.945271,3.8402,3.9966,167.861,401.82
1692,38.3291,-2.14568,1.93784,26.296,0.0817019,0.244067,0.00593601,1.61821,0.0755206,0.239501,1.00716,0.601814,0.241249,0.613177,2.88169,3.9966,177.224,402.832
1698,37.8335,-1.80899,1.16096,25.1517,0.0133404,0.00861639,-0.0320417,0.815849,1.87291,0.239501,0.144915,0.601814,0.524092,0.945271,3.8402,4.03813,164.131,403.826
1704,37.7435,-1.08683,1.37952,25.3296,0.142468,0.031402,0.795873,0.0134851,0.974216,1.05381,-0.717328,0.226862,0.382671,0.945271,4.79872,3.872,168.977,404.816
1710,40.5953,-0.965566,1.30852,25.3729,-0.0626168,0.114949,0.651557,0.815849,0.974216,0.239501,0.144915,0.226862,0.382671,0.779224,4.79872,3.85123,162.77,405.83
1716,37.8813,-1.00973,1.30295,24.7248,0.377935,0.380781,0.400904,2.42058,0.974216,1.05381,0.144915,0.226862,0.382671,0.945271,4.79872,3.83047,164.899,406.821
1722,40.9938,-0.218155,1.86051,24.8217,0.294382,0.426352,0.454073,0.815849,1.87291,1.05381,0.144915,0.226862,0.382671,0.613177,3.8402,3.83047,156.911,407.795
1728,44.0712,-0.558738,2.09581,25.1675,0.446297,0.874468,0.400904,1.61821,0.974216,0.239501,1.8694,0.976767,0.241249,0.945271,3.8402,4.03813,160.84,408.763
1734,43.9949,0.050632,1.66907,24.6705,0.233616,0.297234,1.66176,2.42058,0.0755206,0.239501,0.144915,0.601814,0.241249,0.945271,4.79872,3.872,166.098,409.775
1740,43.9753,0.356843,2.2051,25.1242,0.0892976,1.20866,1.17565,2.42058,0.974216,0.239501,1.00716,0.601814,0.382671,0.779224,3.8402,3.83047,149.81,410.721
1746,43.169,0.613638,3.68719,26.2087,0.58302,0.441542,0.324949,2.42058,1.87291,-0.574803,1.00716,0.601814,0.382671,0.779224,3.8402,3.6851,160.959,411.685
1752,52.1364,1.44469,3.33144,26.16,0.301978,-0.0369547,0.20342,1.61821,1.87291,1.05381,-0.717328,0.976767,0.241249,0.779224,1.92317,3.83047,159.961,412.683
1758,43.2558,0.110451,3.22216,26.845,0.256404,1.33018,0.492051,0.815849,0.974216,-0.574803,0.144915,0.226862,0.382671,0.945271,2.88169,3.85123,167.906,413.681
1764,41.9907,0.493223,2.18836,26.0899,0.233616,0.0617827,1.66176,1.61821,1.87291,1.86811,1.00716,0.226862,0.382671,0.945271,4.79872,3.6851,171.764,414.724
1770,44.2214,0.137572,2.13891,26.4188,0.0361276,0.320019,0.803468,1.61821,0.974216,-0.574803,1.8694,0.226862,0.241249,0.945271,3.8402,3.66434,0.0,415.508
1776,36.0728,-0.284613,1.41146,25.6257,0.00574466,0.16052,0.13506,0.815849,0.974216,1.86811,0.144915,1.35172,0.382671,0.945271,3.8402,3.6851,0.0,415.508
1782,36.5278,-0.917339,1.7393,25.4958,0.112085,-0.0217644,0.431287,1.61821,1.87291,-0.574803,0.144915,0.976767,0.382671,0.779224,3.8402,3.70587,0.0,415.508
1783,36.7561,-0.944643,1.71217,25.5824,0.0589147,0.107354,0.157847,1.61821,0.974216,1.05381,1.00716,0.226862,0.241249,1.11132,2.88169,3.66434,0.0,415.508