File: 01_Data/Plywood/STA/N2/30K_min/Plywood_STA_N2_30KData_22253_R1.csv
##Temp./Â°C,Time/min,Mass loss(subtr.2)/mg,DSC(subtr.2)/(mW/mg),Sensit./(uV/mW)
48.751,10.01,0.00559,0.01328796,
49.351,10.52951,0.004916276,0.06079325,
49.951,10.64633,0.006056228,0.09513988,
50.551,10.73043,0.006239604,0.13025,
51.151,10.79877,0.006375427,0.15991,
51.751,10.85751,0.005920353,0.18634,
52.351,10.91015,0.004497857,0.21308,
52.951,10.95821,0.004745079,0.23722,
53.551,11.00304,0.005440283,0.26142,
54.151,11.04478,0.00675261,0.28259,
54.751,11.08372,0.006645506,0.30489,
55.351,11.12105,0.006244908,0.32406,
55.951,11.15677,0.007354774,0.3458,
56.551,11.19124,0.006461622,0.36575,
57.151,11.22446,0.006307851,0.38293,
57.751,11.25657,0.006824314,0.3997,
58.351,11.2878,0.006776705,0.41714,
58.951,11.31839,0.005496359,0.43281,
59.551,11.34805,0.006191716,0.44941,
60.151,11.37702,0.005942607,0.46525,
60.751,11.40528,0.006820719,0.48027,
61.351,11.4331,0.006789152,0.49382,
61.951,11.46052,0.00581311,0.51035,
62.551,11.48747,0.006977035,0.52248,
63.151,11.51406,0.007544494,0.53803,
63.751,11.54012,0.007570532,0.55066,
64.351,11.566,0.007676576,0.56463,
64.951,11.59143,0.007317153,0.57874,
65.551,11.61655,0.006423126,0.59085,
66.151,11.64146,0.005865971,0.60184,
66.751,11.666,0.005646085,0.61526,
67.351,11.69,0.00549,0.62631,
67.951,11.71411,0.005229489,0.639,
68.551,11.73793,0.005443093,0.64853,
69.151,11.76178,0.005139782,0.65962,
69.751,11.78554,0.004881725,0.67015,
70.351,11.80896,0.004791179,0.68179,
70.951,11.83233,0.00498555,0.69173,
71.551,11.85551,0.005364552,0.70425,
72.151,11.87843,0.004576213,0.71608,
72.751,11.90135,0.004723381,0.7232,
73.351,11.92403,0.005011601,0.73349,
73.951,11.9465,0.004763777,0.74187,
74.551,11.96892,0.004662245,0.75414,
75.151,11.99114,0.005216285,0.76222,
75.751,12.01344,0.005531267,0.77093,
76.351,12.0357,0.004815991,0.78246,
76.951,12.05779,0.00473918,0.79065,
77.551,12.07953,0.004702463,0.80199,
78.151,12.10114,0.004290691,0.80948,
78.751,12.12288,0.004586618,0.81996,
79.351,12.14469,0.003330382,0.82887,
79.951,12.16662,0.003234367,0.83671,
80.551,12.18857,0.003104829,0.84773,
81.151,12.21025,0.001547518,0.85651,
81.751,12.23162,0.002759178,0.86252,
82.351,12.25302,0.002618604,0.87083,
82.951,12.27432,0.002310754,0.88212,
83.551,12.29556,0.001826252,0.88807,
84.151,12.31675,0.001628648,0.89542,
84.751,12.3379,0.000969566,0.90515,
85.351,12.35897,0.000689345,0.91246,
85.951,12.37999,0.001760054,0.9198,
86.551,12.40104,0.001016287,0.92731,
87.151,12.42199,0.000565991,0.93336,
87.751,12.4429,0.000598213,0.94075,
88.351,12.46374,0.000159368,0.94878,
88.951,12.4846,-0.00104117,0.95622,
89.551,12.50539,-0.001010482,0.96111,
90.151,12.52618,-0.001393305,0.96638,
90.751,12.54686,-0.001157356,0.97349,
91.351,12.56745,-0.001012509,0.97988,
91.951,12.58787,-0.001765267,0.98675,
92.551,12.60845,-0.002297322,0.9924,
93.151,12.62895,-0.002249739,1.00012,
93.751,12.64953,-0.003325468,1.00344,
94.351,12.67016,-0.002312515,1.00819,
94.951,12.69058,-0.002313177,1.01499,
95.551,12.71104,-0.00237866,1.01935,
96.151,12.73149,-0.003624941,1.02492,
96.751,12.7518,-0.003621744,1.02962,
97.351,12.77219,-0.003643311,1.03464,
97.951,12.79252,-0.002770824,1.03698,
98.551,12.81274,-0.003720908,1.04213,
99.151,12.83313,-0.003595492,1.04542,
99.751,12.8534,-0.004555983,1.04771,
100.351,12.8738,-0.004926976,1.05068,
100.951,12.89419,-0.005137278,1.05407,
101.551,12.91452,-0.006297659,1.0568,
102.151,12.93474,-0.006207,1.0572,
102.751,12.95492,-0.007300601,1.06129,
103.351,12.97495,-0.007557034,1.06229,
103.951,12.99513,-0.007569086,1.06408,
104.551,13.0153,-0.007570005,1.06586,
105.151,13.03545,-0.007570965,1.06576,
105.751,13.0556,-0.007583595,1.0666,
106.351,13.07577,-0.007890426,1.06792,
106.951,13.09593,-0.008921158,1.06655,
107.551,13.11602,-0.008875955,1.06805,
108.151,13.13616,-0.008782805,1.06589,
108.751,13.15627,-0.01016398,1.0692,
109.351,13.17637,-0.01019819,1.069,
109.951,13.19656,-0.01019309,1.06455,
110.551,13.21666,-0.01123922,1.06596,
111.151,13.23676,-0.01149627,1.06455,
111.751,13.25685,-0.01142423,1.06227,
112.351,13.27688,-0.01281409,1.0622,
112.951,13.29689,-0.01284561,1.05975,
113.551,13.317,-0.0129328,1.05614,
114.151,13.33701,-0.01154424,1.05533,
114.751,13.35706,-0.01152109,1.05302,
115.351,13.37711,-0.01152008,1.0508,
115.951,13.39716,-0.01152011,1.04827,
116.551,13.4172,-0.01152152,1.04762,
117.151,13.43723,-0.01166189,1.0449,
117.751,13.4572,-0.01288419,1.04471,
118.351,13.47715,-0.01283399,1.0403,
118.951,13.49705,-0.01283038,1.03846,
119.551,13.51701,-0.0128311,1.03606,
120.151,13.53694,-0.01284511,1.03369,
120.751,13.55679,-0.01335624,1.03296,
121.351,13.57662,-0.01557227,1.02987,
121.951,13.59646,-0.01547782,1.02645,
122.551,13.61621,-0.01547245,1.02576,
123.151,13.63596,-0.01549611,1.02295,
123.751,13.65574,-0.01601714,1.02059,
124.351,13.67554,-0.01678439,1.0217,
124.951,13.69527,-0.01676713,1.01822,
125.551,13.71504,-0.01651351,1.01578,
126.151,13.73475,-0.01540969,1.01323,
126.751,13.75446,-0.01545629,1.0118,
127.351,13.77408,-0.01545943,1.01082,
127.951,13.79374,-0.01545615,1.01025,
128.551,13.81338,-0.01541157,1.00761,
129.151,13.83297,-0.01618536,1.00728,
129.751,13.85255,-0.01608795,1.00731,
130.351,13.87218,-0.01684096,1.00536,
130.951,13.8917,-0.01678371,1.00725,
131.551,13.91129,-0.01677932,1.00603,
132.151,13.93084,-0.01677208,1.00505,
132.751,13.95042,-0.01747503,1.00505,
133.351,13.9698,-0.0181016,1.00313,
133.951,13.98933,-0.01809822,1.00447,
134.551,14.00866,-0.01932746,1.00525,
135.151,14.02813,-0.01941054,1.00479,
135.751,14.04757,-0.01941909,1.00505,
136.351,14.06702,-0.01941979,1.006,
136.951,14.08654,-0.01941818,1.0068,
137.551,14.10594,-0.01939421,1.00712,
138.151,14.12526,-0.01892893,1.00673,
138.751,14.14457,-0.0180931,1.00906,
139.351,14.16388,-0.01809949,1.0093,
139.951,14.18312,-0.01809994,1.01176,
140.551,14.20243,-0.01809975,1.01412,
141.151,14.22169,-0.01809764,1.01283,
141.751,14.24089,-0.01850912,1.01404,
142.351,14.26007,-0.01940888,1.01633,
142.951,14.27933,-0.01941081,1.01819,
143.551,14.29849,-0.01941026,1.01956,
144.151,14.31777,-0.01941217,1.02392,
144.751,14.33693,-0.01944477,1.02439,
145.351,14.35615,-0.01904991,1.02726,
145.951,14.37533,-0.0190436,1.02682,
146.551,14.39445,-0.01944458,1.03188,
147.151,14.41361,-0.01941253,1.03363,
147.751,14.43279,-0.01941021,1.03408,
148.351,14.45185,-0.01941037,1.03793,
148.951,14.47098,-0.01941244,1.04025,
149.551,14.49003,-0.01941087,1.04523,
150.151,14.50907,-0.0206972,1.04593,
150.751,14.5281,-0.02072487,1.04788,
151.351,14.54716,-0.02072943,1.0492,
151.951,14.56616,-0.02072995,1.05223,
152.551,14.58515,-0.02073,1.05507,
153.151,14.60419,-0.02073,1.05539,
153.751,14.62299,-0.02073,1.0584,
154.351,14.6418,-0.02073,1.06398,
154.951,14.66072,-0.02073,1.06717,
155.551,14.67962,-0.02073,1.06805,
156.151,14.69855,-0.02072998,1.07148,
156.751,14.7177,-0.02072965,1.07401,
157.351,14.73686,-0.02072444,1.07547,
157.951,14.75584,-0.02167149,1.07776,
158.551,14.77479,-0.02201492,1.08195,
159.151,14.79371,-0.02203811,1.08341,
159.751,14.81261,-0.02203988,1.08815,
160.351,14.83151,-0.02203999,1.08996,
160.951,14.85039,-0.02204,1.0948,
161.551,14.86931,-0.02204,1.09499,
162.151,14.8882,-0.02204,1.10104,
162.751,14.90709,-0.02204,1.10219,
163.351,14.92592,-0.02204,1.10425,
163.951,14.94474,-0.02204,1.1088,
164.551,14.96357,-0.02204,1.11416,
165.151,14.98233,-0.02204,1.11606,
165.751,15.00113,-0.02204,1.11948,
166.351,15.01998,-0.02204,1.12125,
166.951,15.03882,-0.02204001,1.12593,
167.551,15.05765,-0.02204012,1.12956,
168.151,15.07656,-0.02204185,1.13199,
168.751,15.09534,-0.02211548,1.13437,
169.351,15.11418,-0.02345648,1.13979,
169.951,15.13297,-0.0233667,1.14083,
170.551,15.15161,-0.02335957,1.14403,
171.151,15.17044,-0.02335741,1.14744,
171.751,15.18925,-0.02367237,1.15078,
172.351,15.20794,-0.02368656,1.15344,
172.951,15.22671,-0.02369639,1.15793,
173.551,15.24557,-0.02384159,1.1608,
174.151,15.26427,-0.02437373,1.16364,
174.751,15.28296,-0.0243305,1.16655,
175.351,15.30169,-0.02470582,1.17113,
175.951,15.32041,-0.02468058,1.17342,
176.551,15.33905,-0.02467988,1.17748,
177.151,15.35766,-0.02467998,1.1799,
177.751,15.37629,-0.02468,1.18214,
178.351,15.39491,-0.02468,1.18662,
178.951,15.41353,-0.02468,1.19033,
179.551,15.43212,-0.02468,1.19358,
180.151,15.45072,-0.02468,1.19513,
180.751,15.4693,-0.02468,1.1979,
181.351,15.48783,-0.02468006,1.20067,
181.951,15.50638,-0.02468101,1.20582,
182.551,15.52496,-0.02469299,1.20729,
183.151,15.54353,-0.02484659,1.2113,
183.751,15.5621,-0.02604258,1.21417,
184.351,15.5807,-0.02600091,1.21563,
184.951,15.59926,-0.02600501,1.22052,
185.551,15.61776,-0.02646631,1.22227,
186.151,15.63624,-0.0273538,1.22486,
186.751,15.65469,-0.02740277,1.23005,
187.351,15.67315,-0.02836073,1.22971,
187.951,15.69152,-0.02830302,1.23465,
188.551,15.70994,-0.02829999,1.23743,
189.151,15.72836,-0.02829997,1.23851,
189.751,15.74668,-0.02830001,1.2427,
190.351,15.76495,-0.02830012,1.24676,
190.951,15.78341,-0.02830126,1.25149,
191.551,15.80184,-0.02831124,1.25084,
192.151,15.82026,-0.02963416,1.25457,
192.751,15.83876,-0.02961419,1.25901,
193.351,15.8573,-0.02962083,1.26187,
193.951,15.87569,-0.0297079,1.2646,
194.551,15.89407,-0.03102615,1.26787,
195.151,15.91241,-0.0309361,1.27059,
195.751,15.93078,-0.03093013,1.27165,
196.351,15.94912,-0.03093078,1.2744,
196.951,15.96747,-0.03095306,1.27679,
197.551,15.98583,-0.03147591,1.28167,
198.151,16.00422,-0.03238776,1.28317,
198.751,16.02262,-0.03245398,1.28478,
199.351,16.04092,-0.03404072,1.28478,
199.951,16.05926,-0.03399439,1.2903,
200.551,16.07763,-0.03391565,1.2909,
201.151,16.09596,-0.03528545,1.29421,
201.751,16.11424,-0.03557888,1.29647,
202.351,16.13259,-0.03594888,1.29831,
202.951,16.15091,-0.03595357,1.30209,
203.551,16.16919,-0.03688752,1.30391,
204.151,16.18748,-0.03729518,1.30463,
204.751,16.2058,-0.03731617,1.30688,
205.351,16.22411,-0.03765142,1.30665,
205.951,16.24229,-0.03861654,1.30869,
206.551,16.26063,-0.0386129,1.31177,
207.151,16.27899,-0.03985039,1.31087,
207.751,16.29732,-0.03984179,1.31421,
208.351,16.31561,-0.0407234,1.31378,
208.951,16.33383,-0.04200449,1.31538,
209.551,16.35207,-0.04191662,1.31858,
210.151,16.37036,-0.04192189,1.3181,
210.751,16.38861,-0.04320041,1.31906,
211.351,16.40694,-0.04314739,1.3186,
211.951,16.42537,-0.04405717,1.31958,
212.551,16.44364,-0.0432152,1.32225,
213.151,16.46184,-0.04414466,1.32292,
213.751,16.4801,-0.04474825,1.32588,
214.351,16.49831,-0.0452548,1.32358,
214.951,16.51657,-0.04623959,1.32379,
215.551,16.53478,-0.0466013,1.32629,
216.151,16.55303,-0.04761817,1.3279,
216.751,16.57128,-0.04806922,1.32645,
217.351,16.58953,-0.04913846,1.32622,
217.951,16.60776,-0.05036948,1.3285,
218.551,16.62605,-0.05049275,1.32843,
219.151,16.64431,-0.0516658,1.33193,
219.751,16.66249,-0.05217242,1.3308,
220.351,16.68071,-0.05365175,1.32991,
220.951,16.6989,-0.05418265,1.32956,
221.551,16.71708,-0.05524079,1.33332,
222.151,16.73528,-0.05571098,1.33244,
222.751,16.75351,-0.05672008,1.33354,
223.351,16.77168,-0.05724871,1.3336,
223.951,16.78985,-0.05890299,1.33348,
224.551,16.80798,-0.05976425,1.33518,
225.151,16.82615,-0.06032357,1.33425,
225.751,16.8443,-0.06196349,1.3365,
226.351,16.86248,-0.06310839,1.33747,
226.951,16.88071,-0.06376497,1.33774,
227.551,16.89888,-0.0654755,1.33864,
228.151,16.91707,-0.06616079,1.33808,
228.751,16.93522,-0.06693865,1.3421,
229.351,16.95344,-0.06877621,1.34004,
229.951,16.97157,-0.06949394,1.34325,
230.551,16.98976,-0.07018822,1.34299,
231.151,17.0079,-0.07166151,1.34609,
231.751,17.0261,-0.07326356,1.34406,
232.351,17.04418,-0.07456328,1.34782,
232.951,17.06238,-0.07552548,1.34624,
233.551,17.08054,-0.07723982,1.34824,
234.151,17.09874,-0.07893991,1.3473,
234.751,17.11692,-0.08046074,1.35029,
235.351,17.13509,-0.0813547,1.3528,
235.951,17.15326,-0.08264179,1.35301,
236.551,17.17143,-0.08382185,1.35629,
237.151,17.18951,-0.08505212,1.35888,
237.751,17.20763,-0.08617782,1.35835,
238.351,17.22577,-0.08761142,1.36281,
238.951,17.24388,-0.08959013,1.36164,
239.551,17.262,-0.09056532,1.36351,
240.151,17.28011,-0.09127391,1.36558,
240.751,17.29826,-0.09219112,1.36559,
241.351,17.3164,-0.09385786,1.36725,
241.951,17.33451,-0.09529077,1.36865,
242.551,17.35267,-0.09677293,1.37111,
243.151,17.37086,-0.09837194,1.37118,
243.751,17.38902,-0.10017,1.37305,
244.351,17.4072,-0.10213,1.37412,
244.951,17.42536,-0.10416,1.37792,
245.551,17.4435,-0.10604,1.37883,
246.151,17.4616,-0.10766,1.37997,
246.751,17.47969,-0.10944,1.38051,
247.351,17.49776,-0.11049,1.37866,
247.951,17.51592,-0.1124,1.38453,
248.551,17.53405,-0.1149,1.38443,
249.151,17.55217,-0.11664,1.38769,
249.751,17.57031,-0.1186,1.38607,
250.351,17.58848,-0.11996,1.38841,
250.951,17.60657,-0.12174,1.39152,
251.551,17.62464,-0.12343,1.38828,
252.151,17.64278,-0.12524,1.39196,
252.751,17.66088,-0.12733,1.39475,
253.351,17.67896,-0.12951,1.39536,
253.951,17.69706,-0.13138,1.39695,
254.551,17.71522,-0.13309,1.39713,
255.151,17.73334,-0.13482,1.40038,
255.751,17.75148,-0.13722,1.39808,
256.351,17.7696,-0.13938,1.40154,
256.951,17.78771,-0.14176,1.39996,
257.551,17.8058,-0.14427,1.40155,
258.151,17.82393,-0.14615,1.40309,
258.751,17.84205,-0.14862,1.40443,
259.351,17.86023,-0.15151,1.40686,
259.951,17.87836,-0.1535,1.40517,
260.551,17.89656,-0.15577,1.40572,
261.151,17.91465,-0.15825,1.40509,
261.751,17.93279,-0.16074,1.40879,
262.351,17.95089,-0.16282,1.40657,
262.951,17.96901,-0.16516,1.40866,
263.551,17.98708,-0.1675,1.41003,
264.151,18.00519,-0.16988,1.4105,
264.751,18.02325,-0.17228,1.41087,
265.351,18.04136,-0.17465,1.41318,
265.951,18.05949,-0.17743,1.41354,
266.551,18.07761,-0.17908,1.41229,
267.151,18.09576,-0.18088,1.41172,
267.751,18.11392,-0.18344,1.41176,
268.351,18.13211,-0.18639,1.41403,
268.951,18.15027,-0.18838,1.41298,
269.551,18.16839,-0.19072,1.41368,
270.151,18.18647,-0.19352,1.41346,
270.751,18.20452,-0.19628,1.41376,
271.351,18.2226,-0.19905,1.41312,
271.951,18.24065,-0.20212,1.41346,
272.551,18.25878,-0.20508,1.4126,
273.151,18.27695,-0.20792,1.41271,
273.751,18.29502,-0.2108,1.41191,
274.351,18.31305,-0.21382,1.41077,
274.951,18.33121,-0.21713,1.41124,
275.551,18.34937,-0.21934,1.4119,
276.151,18.36749,-0.2228,1.41157,
276.751,18.38574,-0.22691,1.4092,
277.351,18.40397,-0.22968,1.41087,
277.951,18.42215,-0.23244,1.40952,
278.551,18.4403,-0.23532,1.40956,
279.151,18.4585,-0.23918,1.40852,
279.751,18.47663,-0.24285,1.4068,
280.351,18.4948,-0.24611,1.40766,
280.951,18.51293,-0.25035,1.40585,
281.551,18.53107,-0.25479,1.4037,
282.151,18.5492,-0.25758,1.40389,
282.751,18.56738,-0.26078,1.40275,
283.351,18.58552,-0.26452,1.4017,
283.951,18.60372,-0.26803,1.40075,
284.551,18.62188,-0.2717,1.39857,
285.151,18.64003,-0.27564,1.39689,
285.751,18.65815,-0.27999,1.39679,
286.351,18.6763,-0.28404,1.39499,
286.951,18.69439,-0.28738,1.39725,
287.551,18.71255,-0.29213,1.39287,
288.151,18.73069,-0.29731,1.39187,
288.751,18.74887,-0.30086,1.38838,
289.351,18.76702,-0.30499,1.38831,
289.951,18.78515,-0.30988,1.38734,
290.551,18.80331,-0.31407,1.38569,
291.151,18.82146,-0.31993,1.38576,
291.751,18.83962,-0.32446,1.38391,
292.351,18.85777,-0.32975,1.37838,
292.951,18.87597,-0.33386,1.37801,
293.551,18.8941,-0.33886,1.37497,
294.151,18.91223,-0.34377,1.37251,
294.751,18.93034,-0.34914,1.37313,
295.351,18.94851,-0.3548,1.3714,
295.951,18.96663,-0.35993,1.36915,
296.551,18.98481,-0.36616,1.36827,
297.151,19.00297,-0.37136,1.36313,
297.751,19.02119,-0.37816,1.36437,
298.351,19.03933,-0.38368,1.36159,
298.951,19.0575,-0.39017,1.36117,
299.551,19.07566,-0.39521,1.35654,
300.151,19.09387,-0.40155,1.35582,
300.751,19.11205,-0.40767,1.35345,
301.351,19.13024,-0.41461,1.35243,
301.951,19.14843,-0.4217,1.35258,
302.551,19.16655,-0.42824,1.34833,
303.151,19.18469,-0.43608,1.34669,
303.751,19.20284,-0.44224,1.34473,
304.351,19.22102,-0.45008,1.34342,
304.951,19.2392,-0.45599,1.34268,
305.551,19.2574,-0.4641,1.34088,
306.151,19.27564,-0.47082,1.33886,
306.751,19.2938,-0.47941,1.3373,
307.351,19.31197,-0.48802,1.33982,
307.951,19.33016,-0.49642,1.33383,
308.551,19.34837,-0.50539,1.33259,
309.151,19.36655,-0.5132,1.33328,
309.751,19.38479,-0.52132,1.33271,
310.351,19.40302,-0.52736,1.331,
310.951,19.42122,-0.53692,1.33026,
311.551,19.43939,-0.54473,1.32997,
312.151,19.4576,-0.55501,1.32895,
312.751,19.47584,-0.56295,1.32786,
313.351,19.49404,-0.57286,1.32818,
313.951,19.51225,-0.58145,1.32961,
314.551,19.5305,-0.59109,1.3272,
315.151,19.54871,-0.60098,1.32585,
315.751,19.56694,-0.61004,1.32808,
316.351,19.58513,-0.62033,1.33092,
316.951,19.60335,-0.62908,1.32939,
317.551,19.62157,-0.64043,1.33191,
318.151,19.63975,-0.64942,1.33075,
318.751,19.65795,-0.66152,1.33258,
319.351,19.67626,-0.67074,1.33304,
319.951,19.69452,-0.68192,1.33399,
320.551,19.71273,-0.69162,1.33658,
321.151,19.73097,-0.7027,1.33555,
321.751,19.74922,-0.71402,1.33636,
322.351,19.76743,-0.72439,1.34,
322.951,19.78568,-0.73606,1.3404,
323.551,19.80395,-0.74602,1.34157,
324.151,19.82222,-0.75911,1.34547,
324.751,19.84048,-0.7693,1.34464,
325.351,19.85876,-0.78253,1.34505,
325.951,19.87704,-0.7929,1.34909,
326.551,19.89535,-0.80605,1.34841,
327.151,19.91363,-0.81745,1.34892,
327.751,19.93187,-0.82998,1.35382,
328.351,19.9501,-0.84245,1.35404,
328.951,19.96838,-0.85488,1.35465,
329.551,19.98668,-0.86897,1.35781,
330.151,20.00497,-0.88075,1.35874,
330.751,20.02333,-0.89507,1.35987,
331.351,20.04166,-0.90615,1.36196,
331.951,20.05997,-0.92091,1.36105,
332.551,20.07822,-0.93227,1.3646,
333.151,20.09655,-0.94714,1.3639,
333.751,20.11483,-0.95937,1.36586,
334.351,20.13311,-0.97536,1.36764,
334.951,20.1514,-0.98873,1.36921,
335.551,20.16976,-1.00296,1.3689,
336.151,20.18807,-1.0179,1.36886,
336.751,20.20645,-1.03138,1.37155,
337.351,20.22482,-1.04696,1.37166,
337.951,20.24317,-1.05997,1.36997,
338.551,20.26152,-1.07669,1.37148,
339.151,20.27984,-1.09015,1.37367,
339.751,20.29817,-1.10682,1.37288,
340.351,20.31653,-1.12017,1.37325,
340.951,20.3349,-1.13685,1.37378,
341.551,20.35323,-1.15123,1.37163,
342.151,20.37155,-1.16723,1.37512,
342.751,20.38995,-1.18282,1.37328,
343.351,20.40825,-1.19821,1.37249,
343.951,20.42656,-1.21534,1.37217,
344.551,20.44497,-1.23046,1.37241,
345.151,20.46336,-1.24871,1.37441,
345.751,20.48169,-1.26434,1.37273,
346.351,20.50006,-1.28283,1.37285,
346.951,20.5184,-1.29774,1.37109,
347.551,20.53673,-1.31707,1.36875,
348.151,20.5551,-1.33259,1.36758,
348.751,20.5735,-1.35062,1.36498,
349.351,20.59197,-1.3668,1.36442,
349.951,20.61036,-1.38421,1.3668,
350.551,20.62875,-1.40231,1.36062,
351.151,20.64713,-1.41965,1.35801,
351.751,20.66549,-1.43826,1.3565,
352.351,20.68378,-1.45422,1.35611,
352.951,20.70224,-1.47474,1.35199,
353.551,20.72066,-1.49072,1.3505,
354.151,20.7391,-1.51131,1.34436,
354.751,20.75748,-1.52702,1.3441,
355.351,20.77585,-1.54803,1.33898,
355.951,20.79422,-1.56566,1.33608,
356.551,20.81261,-1.58592,1.33207,
357.151,20.83102,-1.6047,1.326,
357.751,20.84947,-1.62296,1.31963,
358.351,20.86795,-1.64213,1.31593,
358.951,20.88638,-1.65967,1.3104,
359.551,20.90484,-1.68057,1.30335,
360.151,20.92321,-1.69771,1.29674,
360.751,20.94166,-1.71947,1.29152,
361.351,20.96009,-1.73609,1.28138,
361.951,20.97857,-1.75695,1.27554,
362.551,20.99708,-1.77349,1.26912,
363.151,21.01562,-1.79573,1.25694,
363.751,21.03415,-1.81414,1.24709,
364.351,21.05266,-1.83461,1.23799,
364.951,21.07119,-1.85305,1.22834,
365.551,21.08966,-1.8714,1.21569,
366.151,21.1081,-1.89085,1.20541,
366.751,21.12656,-1.90844,1.19333,
367.351,21.14501,-1.929,1.18159,
367.951,21.16348,-1.94565,1.16808,
368.551,21.18202,-1.96638,1.15286,
369.151,21.20058,-1.98214,1.14084,
369.751,21.21906,-2.00256,1.12421,
370.351,21.23754,-2.01831,1.10857,
370.951,21.25599,-2.03797,1.09329,
371.551,21.27439,-2.05404,1.07699,
372.151,21.29287,-2.07225,1.06225,
372.751,21.31143,-2.08877,1.04206,
373.351,21.32998,-2.10584,1.02631,
373.951,21.34851,-2.12432,1.01142,
374.551,21.36703,-2.14026,0.99167,
375.151,21.38557,-2.15785,0.97346,
375.751,21.40406,-2.17213,0.95458,
376.351,21.42262,-2.18917,0.93386,
376.951,21.44115,-2.20157,0.91721,
377.551,21.45972,-2.21806,0.8971,
378.151,21.47831,-2.23133,0.87838,
378.751,21.49682,-2.24732,0.8583,
379.351,21.51532,-2.25986,0.83935,
379.951,21.53382,-2.27487,0.8199,
380.551,21.55231,-2.28699,0.801,
381.151,21.57077,-2.30001,0.78199,
381.751,21.58927,-2.313,0.76148,
382.351,21.60785,-2.32484,0.74371,
382.951,21.62639,-2.33766,0.72576,
383.551,21.64495,-2.34854,0.70764,
384.151,21.66349,-2.36128,0.68955,
384.751,21.68206,-2.37055,0.67181,
385.351,21.70056,-2.3818,0.65504,
385.951,21.7191,-2.39036,0.63277,
386.551,21.73763,-2.40128,0.61857,
387.151,21.75622,-2.40992,0.59941,
387.751,21.77483,-2.4198,0.58432,
388.351,21.79345,-2.42767,0.56887,
388.951,21.81202,-2.43609,0.54956,
389.551,21.83057,-2.444,0.53565,
390.151,21.84915,-2.45173,0.52137,
390.751,21.86774,-2.45975,0.50523,
391.351,21.88632,-2.46668,0.49065,
391.951,21.90495,-2.47456,0.47414,
392.551,21.92357,-2.48055,0.46067,
393.151,21.94214,-2.48734,0.44813,
393.751,21.96067,-2.49238,0.43249,
394.351,21.97927,-2.49826,0.42207,
394.951,21.99789,-2.50206,0.41083,
395.551,22.01652,-2.50827,0.39989,
396.151,22.03511,-2.51278,0.3877,
396.751,22.05376,-2.51781,0.37695,
397.351,22.07232,-2.52241,0.36531,
397.951,22.09088,-2.52709,0.35367,
398.551,22.1095,-2.53177,0.34337,
399.151,22.12819,-2.53724,0.33502,
399.751,22.14681,-2.5402,0.32419,
400.351,22.16545,-2.54408,0.316,
400.951,22.18415,-2.54856,0.30819,
401.551,22.2028,-2.55191,0.29867,
402.151,22.2214,-2.55474,0.29026,
402.751,22.2401,-2.55756,0.28213,
403.351,22.25879,-2.56109,0.27183,
403.951,22.27745,-2.56467,0.26659,
404.551,22.29611,-2.56689,0.25767,
405.151,22.31478,-2.56942,0.25088,
405.751,22.33342,-2.57229,0.2413,
406.351,22.35208,-2.57458,0.23548,
406.951,22.37075,-2.57699,0.22785,
407.551,22.38946,-2.57966,0.2187,
408.151,22.40818,-2.58244,0.21442,
408.751,22.4269,-2.58509,0.20664,
409.351,22.44562,-2.58722,0.20211,
409.951,22.46429,-2.58988,0.19341,
410.551,22.48304,-2.5926,0.18806,
411.151,22.50179,-2.59486,0.18366,
411.751,22.52048,-2.59698,0.17358,
412.351,22.53914,-2.5989,0.16647,
412.951,22.55787,-2.60107,0.16266,
413.551,22.5765,-2.60313,0.15537,
414.151,22.59521,-2.6052,0.14907,
414.751,22.61394,-2.60732,0.14361,
415.351,22.63259,-2.60943,0.13856,
415.951,22.65128,-2.61157,0.12973,
416.551,22.6701,-2.61416,0.12351,
417.151,22.68887,-2.61687,0.11813,
417.751,22.70758,-2.61945,0.11378,
418.351,22.72648,-2.62145,0.10642,
418.951,22.74529,-2.62345,0.10102,
419.551,22.76402,-2.62607,0.09771365,
420.151,22.78278,-2.62855,0.09077241,
420.751,22.80159,-2.63072,0.084404,
421.351,22.82033,-2.63249,0.08265631,
421.951,22.83898,-2.63452,0.07813769,
422.551,22.8577,-2.63675,0.07120532,
423.151,22.87641,-2.63929,0.06639175,
423.751,22.8952,-2.64149,0.06208625,
424.351,22.91403,-2.64395,0.061735,
424.951,22.93285,-2.64602,0.0573841,
425.551,22.95163,-2.64818,0.05307665,
426.151,22.97048,-2.65029,0.04655992,
426.751,22.98923,-2.65215,0.04433059,
427.351,23.00802,-2.65413,0.03874714,
427.951,23.02684,-2.6564,0.03838848,
428.551,23.04563,-2.65864,0.03344445,
429.151,23.06442,-2.66063,0.03393081,
429.751,23.08317,-2.66306,0.02779225,
430.351,23.10199,-2.66553,0.02640193,
430.951,23.12078,-2.66782,0.02207813,
431.551,23.13962,-2.67025,0.02385083,
432.151,23.15843,-2.67216,0.02175736,
432.751,23.17726,-2.67413,0.02069348,
433.351,23.19614,-2.67641,0.01607577,
433.951,23.21498,-2.67835,0.0184222,
434.551,23.23378,-2.68063,0.01615681,
435.151,23.25265,-2.68177,0.01542381,
435.751,23.27148,-2.68278,0.01600845,
436.351,23.29029,-2.6848,0.01361379,
436.951,23.30916,-2.686,0.01284619,
437.551,23.32797,-2.68776,0.01388997,
438.151,23.34686,-2.68985,0.01697935,
438.751,23.36576,-2.69281,0.01607206,
439.351,23.38459,-2.69497,0.01850111,
439.951,23.40346,-2.69716,0.01667147,
440.551,23.42239,-2.69933,0.01970995,
441.151,23.44121,-2.70115,0.02010363,
441.751,23.46009,-2.703,0.0206501,
442.351,23.47898,-2.70492,0.02141627,
442.951,23.49793,-2.70672,0.02170262,
443.551,23.51683,-2.70839,0.0250543,
444.151,23.53572,-2.71042,0.02723446,
444.751,23.55463,-2.71232,0.02676331,
445.351,23.57355,-2.71412,0.0304577,
445.951,23.59246,-2.7159,0.02929281,
446.551,23.61139,-2.71721,0.03298867,
447.151,23.63029,-2.71904,0.03618427,
447.751,23.64922,-2.72069,0.03839608,
448.351,23.66811,-2.72261,0.04065001,
448.951,23.68704,-2.7247,0.04272721,
449.551,23.70601,-2.72607,0.04704564,
450.151,23.72498,-2.72879,0.04870218,
450.751,23.74394,-2.73088,0.05445663,
451.351,23.76289,-2.73306,0.0560942,
451.951,23.78183,-2.73498,0.0600407,
452.551,23.80078,-2.73632,0.06418918,
453.151,23.81969,-2.73711,0.06727482,
453.751,23.83864,-2.73881,0.06885676,
454.351,23.85761,-2.74084,0.07637975,
454.951,23.87653,-2.7424,0.07804413,
455.551,23.89553,-2.7443,0.08255184,
456.151,23.91455,-2.74592,0.0836374,
456.751,23.93355,-2.74754,0.08921218,
457.351,23.95248,-2.74845,0.09635086,
457.951,23.97153,-2.74973,0.0971049,
458.551,23.9905,-2.75153,0.10099,
459.151,24.00944,-2.75339,0.10563,
459.751,24.02844,-2.75568,0.10747,
460.351,24.04744,-2.75742,0.11384,
460.951,24.06645,-2.75894,0.11636,
461.551,24.08545,-2.76003,0.1224,
462.151,24.10447,-2.76186,0.12554,
462.751,24.12347,-2.76329,0.12732,
463.351,24.14249,-2.765,0.13383,
463.951,24.16154,-2.76633,0.13832,
464.551,24.1806,-2.76711,0.13998,
465.151,24.19964,-2.76824,0.14429,
465.751,24.21868,-2.7699,0.14905,
466.351,24.23775,-2.77186,0.15156,
466.951,24.25682,-2.77349,0.15738,
467.551,24.27586,-2.77505,0.16144,
468.151,24.29493,-2.77718,0.16343,
468.751,24.31397,-2.77805,0.16862,
469.351,24.33305,-2.77937,0.1719,
469.951,24.35212,-2.78081,0.17433,
470.551,24.37122,-2.7827,0.17595,
471.151,24.39034,-2.78376,0.18111,
471.751,24.40939,-2.78487,0.18476,
472.351,24.42843,-2.78667,0.18814,
472.951,24.44753,-2.78826,0.19156,
473.551,24.4666,-2.78942,0.19598,
474.151,24.48568,-2.78915,0.19828,
474.751,24.50479,-2.78926,0.2015,
475.351,24.52391,-2.79055,0.20528,
475.951,24.54294,-2.79135,0.2096,
476.551,24.56201,-2.79306,0.21331,
477.151,24.58108,-2.79582,0.21675,
477.751,24.60019,-2.79691,0.21607,
478.351,24.61928,-2.7976,0.21901,
478.951,24.63839,-2.79875,0.22425,
479.551,24.65748,-2.80043,0.22584,
480.151,24.67658,-2.80196,0.22679,
480.751,24.69573,-2.80306,0.23144,
481.351,24.7148,-2.80452,0.23057,
481.951,24.73399,-2.80622,0.23211,
482.551,24.75316,-2.80774,0.23616,
483.151,24.77231,-2.80855,0.23716,
483.751,24.79139,-2.80927,0.24177,
484.351,24.81054,-2.81094,0.2424,
484.951,24.82965,-2.81243,0.24534,
485.551,24.84877,-2.81267,0.24614,
486.151,24.86775,-2.81384,0.24948,
486.751,24.88676,-2.81405,0.25361,
487.351,24.90584,-2.81479,0.25439,
487.951,24.92501,-2.81633,0.25454,
488.551,24.94417,-2.81681,0.25738,
489.151,24.96348,-2.81798,0.26075,
489.751,24.98281,-2.81957,0.26036,
490.351,25.002,-2.82035,0.26527,
490.951,25.02116,-2.82105,0.26469,
491.551,25.04033,-2.82279,0.26696,
492.151,25.05959,-2.82426,0.26919,
492.751,25.07876,-2.82647,0.26929,
493.351,25.09795,-2.82763,0.27324,
493.951,25.11715,-2.82868,0.27041,
494.551,25.13634,-2.82983,0.27412,
495.151,25.15548,-2.83004,0.27724,
495.751,25.17468,-2.83166,0.27625,
496.351,25.19388,-2.83236,0.27888,
496.951,25.21304,-2.83305,0.27971,
497.551,25.23226,-2.83366,0.28091,
498.151,25.25144,-2.83456,0.28309,
498.751,25.27073,-2.83589,0.28421,
499.351,25.28997,-2.83659,0.28362,
499.951,25.30922,-2.83813,0.28728,
500.551,25.32848,-2.83896,0.28712,
501.151,25.34778,-2.83958,0.28742,
501.751,25.367,-2.84024,0.28802,
502.351,25.38625,-2.84082,0.28751,
502.951,25.4055,-2.84207,0.29132,
503.551,25.42471,-2.84229,0.29112,
504.151,25.44393,-2.84363,0.29273,
504.751,25.46312,-2.84384,0.29384,
505.351,25.48238,-2.84527,0.29456,
505.951,25.50164,-2.8465,0.29394,
506.551,25.52094,-2.84723,0.2956,
507.151,25.54022,-2.84853,0.29563,
507.751,25.55949,-2.84915,0.29609,
508.351,25.57875,-2.84999,0.30015,
508.951,25.59805,-2.85045,0.29776,
509.551,25.61731,-2.85172,0.30053,
510.151,25.63659,-2.85353,0.30129,
510.751,25.65588,-2.8541,0.30174,
511.351,25.67517,-2.85528,0.3014,
511.951,25.69444,-2.85576,0.30171,
512.551,25.71366,-2.85719,0.30385,
513.151,25.73289,-2.85736,0.30341,
513.751,25.75211,-2.8586,0.30444,
514.351,25.77136,-2.85964,0.30537,
514.951,25.79064,-2.85878,0.306,
515.551,25.81,-2.86017,0.30493,
516.151,25.82936,-2.86045,0.30419,
516.751,25.84872,-2.86153,0.30476,
517.351,25.86807,-2.86228,0.30481,
517.951,25.88738,-2.86295,0.3053,
518.551,25.90666,-2.86374,0.30699,
519.151,25.92601,-2.86576,0.30781,
519.751,25.94533,-2.86722,0.30758,
520.351,25.96468,-2.86752,0.30846,
520.951,25.98405,-2.86892,0.30549,
521.551,26.00339,-2.86885,0.30873,
522.151,26.02268,-2.86886,0.31053,
522.751,26.042,-2.87023,0.31012,
523.351,26.06132,-2.87016,0.30969,
523.951,26.08062,-2.87162,0.3093,
524.551,26.09998,-2.87158,0.31194,
525.151,26.11928,-2.87298,0.31345,
525.751,26.13858,-2.87295,0.31114,
526.351,26.15792,-2.8744,0.31194,
526.951,26.17724,-2.87458,0.31078,
527.551,26.19658,-2.87581,0.31355,
528.151,26.21595,-2.87566,0.31175,
528.751,26.23532,-2.87701,0.31183,
529.351,26.25467,-2.8771,0.3159,
529.951,26.27405,-2.87872,0.3146,
530.551,26.29342,-2.87864,0.31521,
531.151,26.31279,-2.88026,0.3179,
531.751,26.33215,-2.88148,0.31774,
532.351,26.35158,-2.88283,0.31761,
532.951,26.37098,-2.88284,0.31469,
533.551,26.39034,-2.88409,0.31585,
534.151,26.4097,-2.88409,0.31756,
534.751,26.42907,-2.88499,0.31865,
535.351,26.44844,-2.88523,0.31796,
535.951,26.46788,-2.88602,0.32037,
536.551,26.48726,-2.88607,0.31788,
537.151,26.50664,-2.88746,0.32154,
537.751,26.52609,-2.88751,0.31906,
538.351,26.54549,-2.88799,0.32171,
538.951,26.56491,-2.88892,0.32207,
539.551,26.58436,-2.88974,0.32185,
540.151,26.60379,-2.89027,0.32377,
540.751,26.62321,-2.89126,0.32356,
541.351,26.64266,-2.89164,0.32455,
541.951,26.66209,-2.89109,0.32734,
542.551,26.68146,-2.89014,0.32742,
543.151,26.70084,-2.89014,0.32784,
543.751,26.7202,-2.893,0.32665,
544.351,26.73954,-2.89503,0.32847,
544.951,26.75893,-2.8965,0.32636,
545.551,26.77831,-2.89658,0.32844,
546.151,26.79775,-2.89783,0.32749,
546.751,26.81725,-2.89813,0.32836,
547.351,26.83671,-2.89965,0.33093,
547.951,26.85614,-2.89991,0.32979,
548.551,26.87563,-2.90091,0.32739,
549.151,26.89502,-2.90083,0.33213,
549.751,26.91444,-2.90193,0.33047,
550.351,26.9339,-2.90231,0.32851,
550.951,26.95338,-2.90395,0.33164,
551.551,26.97284,-2.90386,0.33172,
552.151,26.99228,-2.90524,0.33033,
552.751,27.01176,-2.90516,0.33112,
553.351,27.03122,-2.9052,0.33276,
553.951,27.05071,-2.90649,0.33317,
554.551,27.07027,-2.90649,0.33,
555.151,27.08976,-2.90789,0.33229,
555.751,27.10921,-2.90789,0.33315,
556.351,27.12871,-2.90912,0.3324,
556.951,27.14816,-2.9092,0.33121,
557.551,27.16765,-2.90913,0.33095,
558.151,27.18711,-2.9105,0.33255,
558.751,27.20658,-2.91051,0.33545,
559.351,27.22606,-2.91042,0.33386,
559.951,27.24553,-2.91179,0.33612,
560.551,27.26505,-2.91188,0.33476,
561.151,27.2846,-2.9135,0.33411,
561.751,27.30417,-2.91342,0.33436,
562.351,27.32368,-2.9149,0.33808,
562.951,27.34318,-2.91475,0.33519,
563.551,27.36269,-2.91597,0.33842,
564.151,27.38218,-2.91612,0.33522,
564.751,27.4017,-2.91609,0.33865,
565.351,27.42128,-2.91721,0.33839,
565.951,27.44084,-2.91743,0.33765,
566.551,27.46037,-2.91745,0.3385,
567.151,27.47988,-2.91886,0.33891,
567.751,27.49939,-2.91883,0.33939,
568.351,27.51896,-2.92018,0.33966,
568.951,27.5385,-2.92019,0.34246,
569.551,27.55811,-2.92067,0.34207,
570.151,27.57767,-2.92151,0.34172,
570.751,27.59724,-2.9214,0.34438,
571.351,27.61678,-2.92278,0.34656,
571.951,27.63633,-2.92271,0.34647,
572.551,27.65587,-2.92408,0.34984,
573.151,27.67542,-2.92412,0.35237,
573.751,27.69498,-2.92503,0.35513,
574.351,27.71454,-2.92682,0.354,
574.951,27.73415,-2.9268,0.35891,
575.551,27.75372,-2.92815,0.36051,
576.151,27.77334,-2.92789,0.36562,
576.751,27.79296,-2.92761,0.36727,
577.351,27.81239,-2.92807,0.36773,
577.951,27.83203,-2.92822,0.37135,
578.551,27.8516,-2.92938,0.3756,
579.151,27.8712,-2.93017,0.37535,
579.751,27.89079,-2.93086,0.37467,
580.351,27.91049,-2.93248,0.37796,
580.951,27.93005,-2.93311,0.38305,
581.551,27.94968,-2.93311,0.38247,
582.151,27.96937,-2.93339,0.38487,
582.751,27.98902,-2.93445,0.3865,
583.351,28.00866,-2.93443,0.38802,
583.951,28.02829,-2.93443,0.38953,
584.551,28.04784,-2.93567,0.39046,
585.151,28.06742,-2.93579,0.39319,
585.751,28.0871,-2.93704,0.39737,
586.351,28.1067,-2.93718,0.39958,
586.951,28.12636,-2.93775,0.39976,
587.551,28.14595,-2.93886,0.40283,
588.151,28.16558,-2.93885,0.40417,
588.751,28.18517,-2.9393,0.40666,
589.351,28.20479,-2.94016,0.40842,
589.951,28.22443,-2.94053,0.40945,
590.551,28.24396,-2.94144,0.40997,
591.151,28.26359,-2.94126,0.41253,
591.751,28.28313,-2.94222,0.41504,
592.351,28.30277,-2.94211,0.41727,
592.951,28.32248,-2.94207,0.41875,
593.551,28.34226,-2.94327,0.42125,
594.151,28.36205,-2.94361,0.42021,
594.751,28.38175,-2.94489,0.42344,
595.351,28.40137,-2.94484,0.42238,
595.951,28.42102,-2.94559,0.42499,
596.551,28.4406,-2.94616,0.42577,
597.151,28.46024,-2.94616,0.42433,
597.751,28.47993,-2.94616,0.42617,
598.351,28.49961,-2.94746,0.42668,
598.951,28.51928,-2.94749,0.42895,
599.551,28.539,-2.94848,0.42532,
600.151,28.55873,-2.94903,0.42925,
600.751,28.57844,-2.94954,0.42739,
601.351,28.59816,-2.95036,0.42695,
601.951,28.61788,-2.95082,0.42775,
602.551,28.63759,-2.95167,0.42592,
603.151,28.65728,-2.95165,0.42723,
603.751,28.67699,-2.95156,0.4255,
604.351,28.69671,-2.95294,0.42768,
604.951,28.71647,-2.95299,0.42804,
605.551,28.73615,-2.95356,0.4249,
606.151,28.75585,-2.95428,0.42884,
606.751,28.77561,-2.95418,0.42832,
607.351,28.79536,-2.95555,0.4289,
607.951,28.81508,-2.95562,0.42853,
608.551,28.83484,-2.95598,0.42847,
609.151,28.85461,-2.95551,0.42789,
609.751,28.87439,-2.95559,0.42663,
610.351,28.89412,-2.95635,0.42746,
610.951,28.91385,-2.95688,0.43055,
611.551,28.93347,-2.9569,0.42885,
612.151,28.95302,-2.95754,0.43036,
612.751,28.97261,-2.9582,0.4311,
613.351,28.99237,-2.95818,0.42884,
613.951,29.01223,-2.95937,0.43308,
614.551,29.03217,-2.95955,0.43385,
615.151,29.05214,-2.96008,0.43057,
615.751,29.07199,-2.96084,0.43325,
616.351,29.09181,-2.96087,0.43491,
616.951,29.11159,-2.96097,0.43569,
617.551,29.1314,-2.96218,0.434,
618.151,29.15119,-2.96219,0.43588,
618.751,29.17093,-2.96224,0.43547,
619.351,29.1907,-2.96349,0.43679,
619.951,29.21046,-2.96349,0.43889,
620.551,29.23022,-2.96349,0.43822,
621.151,29.25004,-2.96349,0.43947,
621.751,29.26986,-2.96349,0.44192,
622.351,29.28967,-2.96349,0.44187,
622.951,29.30945,-2.96349,0.44101,
623.551,29.32921,-2.96497,0.44479,
624.151,29.34898,-2.96526,0.44537,
624.751,29.36876,-2.96661,0.44629,
625.351,29.38857,-2.96742,0.44866,
625.951,29.40846,-2.96789,0.44818,
626.551,29.42828,-2.9684,0.4496,
627.151,29.44812,-2.96922,0.44917,
627.751,29.46798,-2.96939,0.44997,
628.351,29.4878,-2.97056,0.45263,
628.951,29.50762,-2.97044,0.45451,
629.551,29.52743,-2.97182,0.45256,
630.151,29.54726,-2.97193,0.4548,
630.751,29.56695,-2.97077,0.45859,
631.351,29.58674,-2.97084,0.45466,
631.951,29.60662,-2.97084,0.45929,
632.551,29.62654,-2.97096,0.45732,
633.151,29.64636,-2.97223,0.45828,
633.751,29.66634,-2.97214,0.45935,
634.351,29.68622,-2.97156,0.46047,
634.951,29.706,-2.97083,0.46069,
635.551,29.72587,-2.97074,0.46193,
636.151,29.74575,-2.97233,0.46522,
636.751,29.76562,-2.97296,0.46485,
637.351,29.78547,-2.97393,0.46765,
637.951,29.80529,-2.97387,0.46792,
638.551,29.82514,-2.97497,0.47154,
639.151,29.84498,-2.97521,0.47033,
639.751,29.86483,-2.97518,0.47153,
640.351,29.88464,-2.97626,0.47467,
640.951,29.90452,-2.97653,0.4724,
641.551,29.92438,-2.9765,0.47714,
642.151,29.94428,-2.97755,0.47622,
642.751,29.96415,-2.97785,0.47855,
643.351,29.98408,-2.97785,0.48054,
643.951,30.00397,-2.97778,0.48072,
644.551,30.02389,-2.97908,0.48144,
645.151,30.0438,-2.97918,0.48317,
645.751,30.06369,-2.97918,0.48588,
646.351,30.08356,-2.97918,0.48371,
646.951,30.10339,-2.97918,0.49162,
647.551,30.12324,-2.97919,0.4901,
648.151,30.14312,-2.97932,0.49264,
648.751,30.16297,-2.98055,0.49469,
649.351,30.18284,-2.98051,0.49546,
649.951,30.20268,-2.98061,0.49582,
650.551,30.22255,-2.98186,0.4984,
651.151,30.24241,-2.98181,0.49743,
651.751,30.26228,-2.98181,0.50029,
652.351,30.28222,-2.98181,0.50504,
652.951,30.30207,-2.98182,0.50311,
653.551,30.3219,-2.98189,0.50483,
654.151,30.34175,-2.98317,0.50669,
654.751,30.36165,-2.98313,0.50786,
655.351,30.38154,-2.98311,0.51014,
655.951,30.40142,-2.98391,0.50972,
656.551,30.42128,-2.98444,0.51262,
657.151,30.4411,-2.98445,0.51362,
657.751,30.46087,-2.98445,0.51283,
658.351,30.48071,-2.98444,0.51482,
658.951,30.50058,-2.98515,0.51711,
659.551,30.52045,-2.98576,0.51737,
660.151,30.54032,-2.98576,0.51882,
660.751,30.56022,-2.98575,0.5203,
661.351,30.58012,-2.98577,0.52277,
661.951,30.60002,-2.98675,0.51838,
662.551,30.61993,-2.98675,0.52051,
663.151,30.63983,-2.98675,0.52215,
663.751,30.65972,-2.98771,0.52296,
664.351,30.67958,-2.98806,0.52517,
664.951,30.69942,-2.98806,0.52352,
665.551,30.71929,-2.98806,0.52449,
666.151,30.73915,-2.98806,0.52649,
666.751,30.75901,-2.98806,0.52979,
667.351,30.77887,-2.9893,0.52757,
667.951,30.7988,-2.98937,0.52771,
668.551,30.81867,-2.98938,0.52784,
669.151,30.83858,-2.98939,0.52955,
669.751,30.85851,-2.98992,0.52601,
670.351,30.87837,-2.99072,0.52982,
670.951,30.8982,-2.99071,0.52844,
671.551,30.91807,-2.98953,0.52791,
672.151,30.93793,-2.9894,0.52968,
672.751,30.95777,-2.98935,0.52679,
673.351,30.9777,-2.99069,0.52758,
673.951,30.99764,-2.99081,0.52958,
674.551,31.01749,-2.99126,0.52822,
675.151,31.03741,-2.99216,0.5285,
675.751,31.05732,-2.99229,0.52782,
676.351,31.07719,-2.99349,0.52807,
676.951,31.09705,-2.99344,0.52883,
677.551,31.11687,-2.99344,0.5274,
678.151,31.13673,-2.99344,0.52899,
678.751,31.15657,-2.99345,0.53057,
679.351,31.17639,-2.99381,0.52922,
679.951,31.19626,-2.9948,0.52953,
680.551,31.21616,-2.99476,0.52789,
681.151,31.23609,-2.99476,0.53052,
681.751,31.25602,-2.99478,0.53022,
682.351,31.27591,-2.99516,0.52627,
682.951,31.29583,-2.99549,0.528,
683.551,31.31572,-2.99682,0.52643,
684.151,31.33558,-2.99675,0.52688,
684.751,31.35542,-2.99673,0.52641,
685.351,31.37536,-2.99665,0.52414,
685.951,31.39528,-2.99799,0.52582,
686.551,31.41526,-2.99804,0.52766,
687.151,31.43522,-2.998,0.52717,
687.751,31.45516,-2.99912,0.52488,
688.351,31.47507,-2.99936,0.52301,
688.951,31.49502,-2.99942,0.52573,
689.551,31.51487,-2.99832,0.52358,
690.151,31.53479,-2.99806,0.52297,
690.751,31.55475,-2.99805,0.5251,
691.351,31.5747,-2.99805,0.52171,
691.951,31.59463,-2.99805,0.5222,
692.551,31.61456,-2.99799,0.52252,
693.151,31.63448,-2.99972,0.52275,
693.751,31.6544,-3.00033,0.52481,
694.351,31.67429,-3.00037,0.52113,
694.951,31.69419,-3.00056,0.51818,
695.551,31.71406,-3.00172,0.51898,
696.151,31.73394,-3.00167,0.5192,
696.751,31.75388,-3.00167,0.51743,
697.351,31.7739,-3.00163,0.52034,
697.951,31.794,-3.00265,0.51772,
698.551,31.81411,-3.00298,0.51814,
699.151,31.83412,-3.00299,0.51961,
699.751,31.85413,-3.00299,0.51727,
700.351,31.8741,-3.00298,0.5192,
700.951,31.89408,-3.00374,0.51441,
701.551,31.91406,-3.00428,0.51454,
702.151,31.93404,-3.00432,0.51336,
702.751,31.95403,-3.00465,0.51148,
703.351,31.97407,-3.00563,0.51351,
703.951,31.99404,-3.00562,0.51298,
704.551,32.01401,-3.00562,0.50938,
705.151,32.03402,-3.00562,0.5111,
705.751,32.05401,-3.00558,0.51073,
706.351,32.07404,-3.0042,0.51087,
706.951,32.09405,-3.00429,0.50901,
707.551,32.11408,-3.0043,0.50924,
708.151,32.13408,-3.0043,0.50921,
708.751,32.15406,-3.0043,0.50686,
709.351,32.17408,-3.0043,0.50662,
709.951,32.19409,-3.0043,0.50808,
710.551,32.21413,-3.0051,0.50576,
711.151,32.23418,-3.00563,0.50586,
711.751,32.25424,-3.00699,0.50615,
712.351,32.27428,-3.00717,0.50363,
712.951,32.29431,-3.00753,0.50551,
713.551,32.31432,-3.00848,0.50527,
714.151,32.33432,-3.00847,0.50358,
714.751,32.35434,-3.00847,0.50449,
715.351,32.37441,-3.00847,0.5007,
715.951,32.39446,-3.00842,0.50153,
716.551,32.41454,-3.00949,0.50115,
717.151,32.43458,-3.00978,0.50137,
717.751,32.45461,-3.00979,0.50202,
718.351,32.47457,-3.00979,0.50141,
718.951,32.49454,-3.00979,0.50244,
719.551,32.51455,-3.0098,0.49707,
720.151,32.53455,-3.01002,0.49567,
720.751,32.55457,-3.01115,0.49629,
721.351,32.57464,-3.0111,0.49527,
721.951,32.59472,-3.0111,0.49335,
722.551,32.61475,-3.0111,0.49536,
723.151,32.63493,-3.01116,0.49443,
723.751,32.65491,-3.01251,0.49332,
724.351,32.67497,-3.01243,0.49335,
724.951,32.69505,-3.01242,0.49312,
725.551,32.71514,-3.01242,0.49178,
726.151,32.73523,-3.01242,0.48826,
726.751,32.75537,-3.01242,0.49499,
727.351,32.77542,-3.01242,0.49078,
727.951,32.79549,-3.01242,0.49115,
728.551,32.81553,-3.01241,0.49161,
729.151,32.83562,-3.01233,0.48669,
729.751,32.85572,-3.01374,0.48695,
730.351,32.8758,-3.01384,0.48881,
730.951,32.89593,-3.01384,0.48889,
731.551,32.91604,-3.01394,0.48872,
732.151,32.93614,-3.01524,0.48551,
732.751,32.95621,-3.01517,0.48436,
733.351,32.97634,-3.01516,0.48306,
733.951,32.99643,-3.01516,0.48119,
734.551,33.0166,-3.01515,0.4833,
735.151,33.03665,-3.01477,0.48038,
735.751,33.0567,-3.01381,0.47753,
736.351,33.07679,-3.01384,0.4784,
736.951,33.09688,-3.01384,0.47981,
737.551,33.117,-3.01382,0.4769,
738.151,33.13726,-3.01469,0.47513,
738.751,33.15739,-3.01482,0.47605,
739.351,33.17752,-3.01483,0.47578,
739.951,33.19763,-3.01484,0.47586,
740.551,33.21772,-3.01529,0.47491,
741.151,33.23786,-3.01616,0.47017,
741.751,33.258,-3.01614,0.47048,
742.351,33.27809,-3.01615,0.46922,
742.951,33.29822,-3.01668,0.4695,
743.551,33.31834,-3.01714,0.46635,
744.151,33.33848,-3.01713,0.46663,
744.751,33.35855,-3.01713,0.46493,
745.351,33.37871,-3.01714,0.46292,
745.951,33.39878,-3.01743,0.46408,
746.551,33.41886,-3.01746,0.46251,
747.151,33.43902,-3.01744,0.4585,
747.751,33.45917,-3.01775,0.45985,
748.351,33.47931,-3.01909,0.45887,
748.951,33.49948,-3.01944,0.46086,
749.551,33.51963,-3.02039,0.46038,
750.151,33.53974,-3.02075,0.45793,
750.751,33.55984,-3.02075,0.454,
751.351,33.57993,-3.02075,0.45089,
751.951,33.60006,-3.02075,0.4521,
752.551,33.62022,-3.02075,0.45179,
753.151,33.64039,-3.02075,0.44985,
753.751,33.66051,-3.02075,0.44851,
754.351,33.68064,-3.02036,0.45005,
754.951,33.70082,-3.02018,0.4471,
755.551,33.72094,-3.02075,0.44382,
756.151,33.74107,-3.02076,0.44016,
756.751,33.7612,-3.02076,0.44507,
757.351,33.78142,-3.02076,0.44409,
757.951,33.80151,-3.02076,0.43952,
758.551,33.82168,-3.02076,0.44231,
759.151,33.8418,-3.02076,0.44102,
759.751,33.86195,-3.02074,0.43662,
760.351,33.88206,-3.02159,0.43279,
760.951,33.90221,-3.02206,0.43428,
761.551,33.92239,-3.02207,0.43421,
762.151,33.94253,-3.02207,0.43346,
762.751,33.96272,-3.02208,0.43223,
763.351,33.98289,-3.0222,0.4342,
763.951,34.00306,-3.02344,0.43176,
764.551,34.02323,-3.02339,0.43174,
765.151,34.04337,-3.02339,0.43047,
765.751,34.06358,-3.02341,0.42926,
766.351,34.08377,-3.02372,0.4284,
766.951,34.10399,-3.02472,0.42805,
767.551,34.12413,-3.02471,0.42955,
768.151,34.14432,-3.02471,0.42605,
768.751,34.16443,-3.02471,0.42299,
769.351,34.18453,-3.02471,0.42485,
769.951,34.20464,-3.02471,0.4201,
770.551,34.22481,-3.02469,0.42253,
771.151,34.24497,-3.02527,0.41878,
771.751,34.26517,-3.02422,0.41963,
772.351,34.28547,-3.02477,0.41815,
772.951,34.30566,-3.02471,0.41715,
773.551,34.32583,-3.0247,0.41842,
774.151,34.34603,-3.0247,0.41678,
774.751,34.36614,-3.02464,0.4219,
775.351,34.38631,-3.02563,0.41463,
775.951,34.40648,-3.0257,0.41606,
776.551,34.42667,-3.02592,0.41682,
777.151,34.44685,-3.02601,0.41468,
777.751,34.46702,-3.02602,0.4118,
778.351,34.48714,-3.02619,0.41351,
778.951,34.5073,-3.02695,0.41332,
779.551,34.52745,-3.02831,0.41146,
780.151,34.54757,-3.02832,0.4128,
780.751,34.56769,-3.02832,0.41153,
781.351,34.58774,-3.02829,0.4114,
781.951,34.60788,-3.02869,0.41181,
782.551,34.62793,-3.02831,0.408,
783.151,34.64804,-3.02832,0.41099,
783.751,34.66826,-3.02834,0.4084,
784.351,34.68848,-3.02917,0.40377,
784.951,34.70876,-3.02964,0.4055,
785.551,34.72906,-3.02964,0.40587,
786.151,34.74923,-3.02964,0.40505,
786.751,34.76938,-3.02964,0.40636,
787.351,34.78954,-3.03092,0.40519,
787.951,34.80971,-3.03095,0.40668,
788.551,34.82988,-3.03095,0.40202,
789.151,34.85004,-3.02997,0.40481,
789.751,34.8703,-3.02964,0.40082,
790.351,34.89054,-3.02964,0.40008,
790.951,34.91074,-3.03036,0.40097,
791.551,34.9311,-3.02958,0.39912,
792.151,34.95133,-3.02962,0.3964,
792.751,34.97151,-3.03043,0.39843,
793.351,34.99176,-3.03095,0.39647,
793.551,34.99839,-3.03095,0.39707,