File: 01_Data/Plywood/STA/N2/30K_min/Plywood_STA_N2_30KData_22253_R3.csv
##Temp./Â°C,Time/min,Mass loss(subtr.2)/mg,DSC(subtr.2)/(mW/mg)
48.688,10.00917,-0.03937,0.02774647
49.288,10.52667,-0.03969345,0.06328398
49.888,10.64409,-0.04097124,0.09110545
50.488,10.72809,-0.04061119,0.11751
51.088,10.79733,-0.04285963,0.14263
51.688,10.85631,-0.0411782,0.16832
52.288,10.90881,-0.04165428,0.18967
52.888,10.95651,-0.04178203,0.2114
53.488,11.00098,-0.04130197,0.23304
54.088,11.04252,-0.04025373,0.24864
54.688,11.08195,-0.0379073,0.26864
55.288,11.11943,-0.03767049,0.28663
55.888,11.15547,-0.04155339,0.30137
56.488,11.19022,-0.04232633,0.32144
57.088,11.22348,-0.04144623,0.33666
57.688,11.25551,-0.04143598,0.35115
58.288,11.28645,-0.04372175,0.36754
58.888,11.31702,-0.04512076,0.38081
59.488,11.34678,-0.0422085,0.39724
60.088,11.37615,-0.04234736,0.41153
60.688,11.40463,-0.04512553,0.42404
61.288,11.43256,-0.04412959,0.4379
61.888,11.45989,-0.04140052,0.44836
62.488,11.48677,-0.04099717,0.46005
63.088,11.51322,-0.04126271,0.47172
63.688,11.53941,-0.04145955,0.48301
64.288,11.56519,-0.04209584,0.496
64.888,11.59065,-0.04179735,0.50793
65.488,11.61585,-0.04080831,0.5181
66.088,11.64052,-0.04179419,0.52981
66.688,11.66513,-0.04287019,0.53833
67.288,11.68962,-0.04385044,0.54867
67.888,11.71382,-0.04431908,0.559
68.488,11.73782,-0.04414838,0.56939
69.088,11.76142,-0.04369993,0.57884
69.688,11.78468,-0.04349102,0.5899
70.288,11.80804,-0.04344952,0.60042
70.888,11.83143,-0.04396617,0.60995
71.488,11.85481,-0.04414022,0.61814
72.088,11.87809,-0.04380356,0.62679
72.688,11.90099,-0.04371829,0.63751
73.288,11.9237,-0.04463946,0.64732
73.888,11.94631,-0.04554815,0.65514
74.488,11.96881,-0.04549645,0.66326
75.088,11.99122,-0.04594031,0.6744
75.688,12.01349,-0.04596237,0.68154
76.288,12.03567,-0.04602274,0.6944
76.888,12.05778,-0.04601746,0.69998
77.488,12.07977,-0.04625125,0.70857
78.088,12.10168,-0.04747656,0.71725
78.688,12.12354,-0.04685326,0.72641
79.288,12.14527,-0.04758579,0.73265
79.888,12.16694,-0.04831232,0.74299
80.488,12.18859,-0.04834922,0.75092
81.088,12.21015,-0.04867362,0.76091
81.688,12.2317,-0.04843771,0.76668
82.288,12.25316,-0.04745282,0.7766
82.888,12.27456,-0.04814944,0.78442
83.488,12.29579,-0.04816953,0.79173
84.088,12.31694,-0.04835065,0.79777
84.688,12.33814,-0.04880165,0.8074
85.288,12.35915,-0.04825998,0.81568
85.888,12.38022,-0.04692851,0.82001
86.488,12.40107,-0.04828438,0.82865
87.088,12.42196,-0.0489425,0.83712
87.688,12.44284,-0.04873218,0.84288
88.288,12.46361,-0.04972301,0.85
88.888,12.48448,-0.04970741,0.85802
89.488,12.50534,-0.05106414,0.86295
90.088,12.52616,-0.0510145,0.87001
90.688,12.54694,-0.0524115,0.8763
91.288,12.56759,-0.05239273,0.88274
91.888,12.58831,-0.05371045,0.88958
92.488,12.6089,-0.05373941,0.89612
93.088,12.62944,-0.05373975,0.90006
93.688,12.64986,-0.0541323,0.90587
94.288,12.67033,-0.05506481,0.91106
94.888,12.69075,-0.05392355,0.91728
95.488,12.71108,-0.05486715,0.92223
96.088,12.73148,-0.05506448,0.92845
96.688,12.75194,-0.05517517,0.93302
97.288,12.77228,-0.05654092,0.93539
97.888,12.79266,-0.05647957,0.93792
98.488,12.81299,-0.05720467,0.94497
99.088,12.83328,-0.05777096,0.94741
99.688,12.85348,-0.05775646,0.95132
100.288,12.87374,-0.05887507,0.95597
100.888,12.89397,-0.0592083,0.95813
101.488,12.91417,-0.06007706,0.96044
102.088,12.9344,-0.06051813,0.96366
102.688,12.95464,-0.06061766,0.96444
103.288,12.97479,-0.06194285,0.96478
103.888,12.99494,-0.06186529,0.96838
104.488,13.0151,-0.06185314,0.97056
105.088,13.03522,-0.06282867,0.9717
105.688,13.05529,-0.06315129,0.97117
106.288,13.07543,-0.06318471,0.97241
106.888,13.09552,-0.06237062,0.97377
107.488,13.11574,-0.06322051,0.97085
108.088,13.13579,-0.06348337,0.97237
108.688,13.156,-0.06350082,0.97296
109.288,13.17607,-0.06352706,0.97122
109.888,13.19612,-0.06425158,0.9707
110.488,13.21613,-0.06504261,0.97105
111.088,13.23618,-0.06611199,0.96896
111.688,13.25626,-0.06647712,0.9667
112.288,13.27635,-0.06772392,0.96726
112.888,13.29642,-0.06767255,0.96408
113.488,13.31647,-0.06765289,0.96029
114.088,13.33642,-0.06717648,0.95934
114.688,13.35641,-0.06703025,0.95747
115.288,13.37635,-0.06701946,0.95541
115.888,13.39636,-0.06700206,0.95225
116.488,13.41628,-0.06652954,0.94943
117.088,13.43622,-0.06637328,0.94833
117.688,13.45612,-0.06638824,0.94538
118.288,13.47598,-0.06705557,0.94229
118.888,13.49589,-0.06732155,0.93825
119.488,13.51577,-0.06733862,0.93517
120.088,13.53563,-0.0673399,0.93245
120.688,13.55548,-0.06733999,0.9295
121.288,13.57532,-0.06733999,0.92506
121.888,13.59511,-0.06733982,0.92325
122.488,13.61484,-0.06733748,0.9202
123.088,13.63465,-0.06730543,0.91894
123.688,13.65442,-0.06770193,0.91639
124.288,13.67416,-0.0676713,0.91407
124.888,13.69388,-0.06858904,0.91226
125.488,13.71358,-0.06911051,0.9075
126.088,13.73324,-0.07082415,0.90751
126.688,13.75289,-0.07195126,0.90518
127.288,13.77253,-0.0719501,0.90117
127.888,13.79214,-0.07195011,0.90067
128.488,13.81174,-0.07195118,0.89809
129.088,13.83123,-0.07196592,0.89623
129.688,13.85062,-0.07286609,0.89434
130.288,13.87029,-0.07196777,0.89223
130.888,13.88988,-0.07195094,0.89198
131.488,13.90942,-0.07195032,0.88847
132.088,13.92908,-0.07194865,0.8876
132.688,13.94864,-0.07100633,0.88525
133.288,13.96811,-0.07062869,0.88584
133.888,13.98758,-0.07063028,0.88474
134.488,14.00699,-0.07063731,0.88615
135.088,14.02644,-0.07074356,0.88428
135.688,14.04579,-0.06999735,0.88344
136.288,14.06518,-0.07064721,0.88326
136.888,14.08448,-0.07064045,0.88449
137.488,14.10387,-0.07063834,0.88281
138.088,14.12326,-0.07059611,0.8824
138.688,14.14264,-0.06921751,0.88433
139.288,14.16193,-0.06926187,0.88397
139.888,14.18121,-0.07045235,0.88452
140.488,14.20036,-0.07071042,0.88632
141.088,14.21953,-0.07195235,0.88495
141.688,14.23883,-0.07193837,0.88624
142.288,14.25806,-0.07292506,0.88818
142.888,14.27731,-0.07289857,0.88742
143.488,14.29654,-0.07413863,0.89086
144.088,14.31579,-0.07424068,0.88791
144.688,14.33492,-0.07424943,0.89086
145.288,14.35405,-0.07425328,0.89436
145.888,14.37322,-0.07429076,0.89585
146.488,14.39237,-0.0733382,0.89854
147.088,14.41148,-0.07295216,0.89863
147.688,14.43057,-0.07293996,0.90021
148.288,14.44973,-0.07293652,0.9026
148.888,14.4688,-0.07326214,0.90556
149.488,14.48789,-0.07327906,0.90504
150.088,14.50681,-0.07379872,0.90919
150.688,14.52589,-0.07390774,0.90774
151.288,14.54495,-0.07393251,0.9117
151.888,14.56397,-0.07417026,0.91309
152.488,14.58308,-0.0752919,0.91475
153.088,14.60224,-0.07525236,0.91729
153.688,14.62128,-0.07532706,0.92103
154.288,14.6403,-0.07658827,0.9206
154.888,14.65932,-0.07656099,0.92461
155.488,14.67826,-0.07782062,0.92712
156.088,14.69725,-0.07787034,0.92543
156.688,14.71614,-0.07787882,0.92964
157.288,14.73512,-0.07787921,0.93138
157.888,14.75401,-0.07787118,0.93516
158.488,14.77293,-0.0777629,0.93892
159.088,14.79186,-0.0775589,0.94074
159.688,14.81082,-0.07755049,0.94266
160.288,14.82977,-0.07755002,0.94318
160.888,14.84876,-0.07755001,0.94756
161.488,14.86766,-0.07755024,0.94924
162.088,14.88657,-0.07755462,0.95137
162.688,14.90543,-0.07762044,0.95521
163.288,14.92418,-0.07682466,0.95709
163.888,14.94308,-0.07688494,0.95934
164.488,14.96193,-0.07688966,0.96218
165.088,14.98075,-0.07688998,0.96534
165.688,14.99955,-0.07689,0.96702
166.288,15.01846,-0.07689,0.96877
166.888,15.03726,-0.07689001,0.97148
167.488,15.05617,-0.07689014,0.97507
168.088,15.07509,-0.07689196,0.97811
168.688,15.09392,-0.0769505,0.98026
169.288,15.11274,-0.07829537,0.98499
169.888,15.13158,-0.07820614,0.98432
170.488,15.15027,-0.07820026,0.98816
171.088,15.16902,-0.0782,0.99251
171.688,15.18783,-0.07820022,0.99399
172.288,15.20659,-0.07820467,0.99601
172.888,15.22538,-0.07827101,0.99892
173.488,15.24416,-0.07747359,1.00158
174.088,15.26287,-0.07753486,1.00363
174.688,15.28156,-0.07753968,1.00819
175.288,15.30032,-0.07753999,1.00822
175.888,15.31907,-0.07754,1.01303
176.488,15.33771,-0.07753983,1.01648
177.088,15.35649,-0.07753659,1.01807
177.688,15.37515,-0.07748849,1.02352
178.288,15.39379,-0.07856817,1.02389
178.888,15.41231,-0.07884383,1.02557
179.488,15.43093,-0.07884166,1.03144
180.088,15.4495,-0.07954747,1.03501
180.688,15.46816,-0.08017937,1.03579
181.288,15.48675,-0.08017132,1.03831
181.888,15.50544,-0.08016329,1.03963
182.488,15.52407,-0.08101688,1.04271
183.088,15.54265,-0.08146468,1.0438
183.688,15.56114,-0.08149392,1.05022
184.288,15.5797,-0.08150777,1.05083
184.888,15.59827,-0.08277852,1.05283
185.488,15.61682,-0.08280312,1.05811
186.088,15.63534,-0.08280229,1.06082
186.688,15.65389,-0.08272193,1.0602
187.288,15.67237,-0.08400113,1.06722
187.888,15.69083,-0.08412869,1.06761
188.488,15.70936,-0.08412998,1.07014
189.088,15.72779,-0.08413001,1.07379
189.688,15.74631,-0.08413,1.07411
190.288,15.76472,-0.08413,1.07832
190.888,15.78319,-0.08413007,1.08065
191.488,15.80163,-0.08413065,1.08484
192.088,15.82008,-0.08413307,1.08557
192.688,15.83848,-0.08437137,1.08943
193.288,15.85692,-0.08677678,1.09214
193.888,15.8753,-0.08674687,1.09363
194.488,15.89364,-0.08666598,1.09752
195.088,15.91206,-0.08792651,1.1014
195.688,15.93044,-0.08806882,1.10242
196.288,15.94879,-0.08807027,1.10572
196.888,15.96718,-0.08808267,1.10669
197.488,15.98554,-0.08854585,1.11015
198.088,16.00389,-0.09085343,1.11216
198.688,16.02227,-0.09072155,1.11396
199.288,16.04063,-0.09071706,1.11728
199.888,16.05898,-0.09070033,1.11886
200.488,16.07733,-0.09082347,1.12224
201.088,16.09563,-0.09071656,1.12535
201.688,16.11397,-0.09069538,1.12642
202.288,16.13233,-0.09063857,1.13034
202.888,16.15061,-0.09179844,1.13205
203.488,16.16893,-0.09201676,1.13507
204.088,16.18719,-0.09122121,1.13654
204.688,16.2055,-0.0917032,1.13978
205.288,16.22375,-0.09199132,1.14239
205.888,16.24206,-0.09198802,1.14192
206.488,16.26036,-0.09277907,1.14708
207.088,16.27872,-0.09334448,1.1458
207.688,16.29692,-0.09336564,1.14819
208.288,16.31529,-0.09398073,1.15107
208.888,16.33359,-0.09481624,1.15294
209.488,16.35188,-0.09607033,1.15401
210.088,16.37019,-0.0963279,1.15385
210.688,16.38855,-0.0980956,1.15557
211.288,16.40678,-0.09963855,1.15597
211.888,16.42512,-0.10062,1.15798
212.488,16.44341,-0.10144,1.16064
213.088,16.46165,-0.10209,1.15965
213.688,16.4799,-0.10213,1.16251
214.288,16.49821,-0.10342,1.16022
214.888,16.51646,-0.10223,1.15882
215.488,16.53474,-0.10212,1.16104
216.088,16.55302,-0.10204,1.16156
216.688,16.5713,-0.10339,1.15915
217.288,16.58956,-0.10366,1.16026
217.888,16.60784,-0.10623,1.16037
218.488,16.62612,-0.10632,1.1605
219.088,16.64433,-0.10758,1.16181
219.688,16.66253,-0.10804,1.15944
220.288,16.68071,-0.1095,1.16184
220.888,16.69893,-0.1101,1.16061
221.488,16.71709,-0.11093,1.16136
222.088,16.73537,-0.11246,1.16121
222.688,16.75366,-0.11342,1.16288
223.288,16.77188,-0.11399,1.16142
223.888,16.79007,-0.11513,1.16207
224.488,16.80832,-0.11549,1.16122
225.088,16.82653,-0.11669,1.15929
225.688,16.84465,-0.11695,1.16138
226.288,16.86287,-0.11853,1.16408
226.888,16.88113,-0.11931,1.1614
227.488,16.89932,-0.11999,1.16363
228.088,16.91752,-0.12083,1.16281
228.688,16.93579,-0.12125,1.16464
229.288,16.95396,-0.12262,1.1665
229.888,16.97211,-0.12397,1.16811
230.488,16.99025,-0.1252,1.16835
231.088,17.00837,-0.12687,1.16904
231.688,17.02652,-0.1294,1.17074
232.288,17.04468,-0.13028,1.16991
232.888,17.06282,-0.13159,1.1719
233.488,17.081,-0.13344,1.17243
234.088,17.09911,-0.13524,1.17508
234.688,17.11725,-0.13628,1.17608
235.288,17.13546,-0.13762,1.17671
235.888,17.15367,-0.13954,1.17998
236.488,17.17187,-0.14126,1.17839
237.088,17.19008,-0.14296,1.17928
237.688,17.20829,-0.14459,1.18066
238.288,17.22641,-0.14513,1.18034
238.888,17.24453,-0.14647,1.18266
239.488,17.26263,-0.14659,1.18447
240.088,17.28082,-0.148,1.18568
240.688,17.29895,-0.14904,1.18706
241.288,17.31712,-0.15052,1.1869
241.888,17.33532,-0.15207,1.18807
242.488,17.35351,-0.15342,1.1936
243.088,17.37164,-0.15516,1.19203
243.688,17.38978,-0.15646,1.1944
244.288,17.40787,-0.15853,1.19565
244.888,17.42598,-0.16054,1.19884
245.488,17.44418,-0.16199,1.19941
246.088,17.46235,-0.16377,1.20216
246.688,17.48053,-0.16548,1.20227
247.288,17.49874,-0.16657,1.20405
247.888,17.51686,-0.16815,1.20508
248.488,17.53495,-0.17025,1.20861
249.088,17.55307,-0.17252,1.20756
249.688,17.57119,-0.17442,1.2102
250.288,17.58932,-0.17848,1.21048
250.888,17.60749,-0.18073,1.21194
251.488,17.62562,-0.18256,1.21167
252.088,17.64377,-0.18395,1.21331
252.688,17.66198,-0.18546,1.21569
253.288,17.68004,-0.18724,1.21822
253.888,17.69815,-0.18777,1.2172
254.488,17.7163,-0.18981,1.21867
255.088,17.73445,-0.19179,1.22163
255.688,17.75248,-0.19374,1.21951
256.288,17.77068,-0.19577,1.22399
256.888,17.78885,-0.19827,1.22503
257.488,17.80696,-0.2009,1.22352
258.088,17.82511,-0.20334,1.22441
258.688,17.84328,-0.20513,1.22749
259.288,17.86129,-0.2071,1.22765
259.888,17.87943,-0.20984,1.22938
260.488,17.89759,-0.21139,1.23119
261.088,17.91573,-0.21393,1.23066
261.688,17.93394,-0.21601,1.23279
262.288,17.95223,-0.21852,1.2323
262.888,17.97034,-0.22248,1.23521
263.488,17.98847,-0.22507,1.23582
264.088,18.0066,-0.22744,1.23599
264.688,18.02472,-0.23119,1.23575
265.288,18.04282,-0.23342,1.23612
265.888,18.06098,-0.2357,1.23715
266.488,18.07909,-0.23789,1.23802
267.088,18.09721,-0.24026,1.23871
267.688,18.11535,-0.24308,1.23816
268.288,18.13349,-0.24582,1.23766
268.888,18.15165,-0.24837,1.23892
269.488,18.16982,-0.2508,1.23692
270.088,18.18798,-0.25356,1.23928
270.688,18.20613,-0.25622,1.23864
271.288,18.22432,-0.25836,1.24066
271.888,18.24246,-0.2617,1.23908
272.488,18.26048,-0.26577,1.23862
273.088,18.27861,-0.2698,1.23885
273.688,18.29677,-0.27286,1.23817
274.288,18.31486,-0.27564,1.2389
274.888,18.33296,-0.27817,1.23673
275.488,18.35119,-0.28144,1.24017
276.088,18.3693,-0.28497,1.2391
276.688,18.38737,-0.28853,1.23798
277.288,18.4055,-0.29156,1.23623
277.888,18.42366,-0.29381,1.236
278.488,18.44178,-0.29678,1.23528
279.088,18.46,-0.3004,1.2347
279.688,18.47816,-0.30427,1.23573
280.288,18.49633,-0.30746,1.23169
280.888,18.51447,-0.31119,1.23235
281.488,18.5327,-0.31439,1.23097
282.088,18.55081,-0.317,1.22953
282.688,18.56901,-0.32092,1.2259
283.288,18.58722,-0.32523,1.22718
283.888,18.60545,-0.32831,1.22619
284.488,18.62362,-0.33142,1.22402
285.088,18.64172,-0.33548,1.22584
285.688,18.65981,-0.33971,1.22353
286.288,18.67793,-0.34297,1.22088
286.888,18.69604,-0.34737,1.21789
287.488,18.71416,-0.35177,1.21929
288.088,18.73241,-0.35607,1.21784
288.688,18.75067,-0.36056,1.21531
289.288,18.76882,-0.3655,1.21374
289.888,18.78699,-0.37007,1.21323
290.488,18.8052,-0.37523,1.20844
291.088,18.82334,-0.37954,1.20878
291.688,18.84146,-0.38502,1.20692
292.288,18.85966,-0.38951,1.20359
292.888,18.87778,-0.395,1.20326
293.488,18.89574,-0.39945,1.20012
294.088,18.91373,-0.40522,1.1994
294.688,18.93182,-0.40972,1.19606
295.288,18.94996,-0.4144,1.19559
295.888,18.96817,-0.41925,1.19233
296.488,18.98648,-0.42534,1.18984
297.088,19.00485,-0.43182,1.18868
297.688,19.02304,-0.43769,1.18356
298.288,19.04116,-0.44502,1.1808
298.888,19.05931,-0.45064,1.18151
299.488,19.07751,-0.45906,1.178
300.088,19.09563,-0.46438,1.17596
300.688,19.11382,-0.47073,1.17025
301.288,19.13202,-0.47641,1.16943
301.888,19.15017,-0.48284,1.16805
302.488,19.16835,-0.49002,1.16748
303.088,19.18656,-0.4963,1.16381
303.688,19.20477,-0.50292,1.16048
304.288,19.22294,-0.50899,1.15796
304.888,19.24112,-0.51728,1.15544
305.488,19.25931,-0.52381,1.15304
306.088,19.27749,-0.53192,1.15066
306.688,19.29567,-0.5382,1.15009
307.288,19.31384,-0.54623,1.14817
307.888,19.332,-0.55371,1.14487
308.488,19.35016,-0.56191,1.14451
309.088,19.36834,-0.57038,1.14064
309.688,19.38654,-0.57869,1.14145
310.288,19.40476,-0.58832,1.14133
310.888,19.42295,-0.5963,1.13673
311.488,19.44113,-0.60626,1.13969
312.088,19.45928,-0.61385,1.13585
312.688,19.47743,-0.62218,1.13626
313.288,19.49562,-0.62995,1.13541
313.888,19.51384,-0.63997,1.13418
314.488,19.53204,-0.64848,1.13319
315.088,19.55025,-0.65765,1.13584
315.688,19.56843,-0.6669,1.13545
316.288,19.58661,-0.67588,1.13396
316.888,19.60477,-0.6864,1.13285
317.488,19.62294,-0.69557,1.13563
318.088,19.64117,-0.70735,1.13604
318.688,19.65941,-0.71626,1.13548
319.288,19.67766,-0.72754,1.13739
319.888,19.69585,-0.73656,1.13782
320.488,19.71408,-0.74798,1.13755
321.088,19.73228,-0.75796,1.13877
321.688,19.75049,-0.76874,1.14011
322.288,19.76865,-0.78111,1.1397
322.888,19.78692,-0.7919,1.14153
323.488,19.8051,-0.80395,1.14248
324.088,19.82333,-0.81378,1.14173
324.688,19.84156,-0.82634,1.14393
325.288,19.8598,-0.83654,1.14582
325.888,19.87805,-0.85015,1.14708
326.488,19.89633,-0.86058,1.1459
327.088,19.91452,-0.8734,1.14559
327.688,19.93273,-0.88436,1.14999
328.288,19.95101,-0.89682,1.15072
328.888,19.96929,-0.90871,1.15198
329.488,19.98758,-0.92077,1.15042
330.088,20.0059,-0.93459,1.15249
330.688,20.02418,-0.94697,1.154
331.288,20.04241,-0.96182,1.15362
331.888,20.06056,-0.97308,1.15792
332.488,20.07882,-0.98791,1.15723
333.088,20.09707,-0.99836,1.15764
333.688,20.11539,-1.01304,1.15742
334.288,20.13375,-1.02528,1.15665
334.888,20.15215,-1.03973,1.15758
335.488,20.17043,-1.05334,1.15815
336.088,20.18875,-1.06836,1.15748
336.688,20.20702,-1.08354,1.15921
337.288,20.22518,-1.09725,1.15749
337.888,20.24354,-1.11353,1.15988
338.488,20.26187,-1.1269,1.15961
339.088,20.28014,-1.14372,1.15792
339.688,20.29847,-1.15716,1.16046
340.288,20.31687,-1.17423,1.15852
340.888,20.33512,-1.18755,1.15882
341.488,20.35344,-1.20405,1.15608
342.088,20.37174,-1.219,1.15787
342.688,20.39006,-1.23498,1.15355
343.288,20.40834,-1.25052,1.15654
343.888,20.42665,-1.26559,1.15541
344.488,20.44492,-1.28297,1.15385
345.088,20.46332,-1.29785,1.15442
345.688,20.48167,-1.31613,1.15228
346.288,20.50005,-1.33074,1.15285
346.888,20.51838,-1.35022,1.15194
347.488,20.53679,-1.36531,1.14961
348.088,20.55513,-1.3838,1.14909
348.688,20.57346,-1.39913,1.14586
349.288,20.59184,-1.41689,1.14222
349.888,20.61024,-1.43391,1.14153
350.488,20.62858,-1.45136,1.13831
351.088,20.64698,-1.47013,1.13594
351.688,20.66537,-1.48734,1.13433
352.288,20.68373,-1.50701,1.13211
352.888,20.70208,-1.5233,1.13069
353.488,20.72046,-1.54388,1.12777
354.088,20.73884,-1.55985,1.12576
354.688,20.75728,-1.5803,1.12265
355.288,20.77572,-1.59653,1.11942
355.888,20.7942,-1.61663,1.11919
356.488,20.81263,-1.63372,1.1154
357.088,20.83105,-1.65298,1.10913
357.688,20.8494,-1.6717,1.10847
358.288,20.86779,-1.69037,1.10319
358.888,20.8862,-1.71054,1.0974
359.488,20.9046,-1.72792,1.095
360.088,20.92301,-1.74879,1.08343
360.688,20.94144,-1.76563,1.08171
361.288,20.95988,-1.78717,1.07516
361.888,20.97824,-1.80351,1.06508
362.488,20.99667,-1.8255,1.0609
363.088,21.01513,-1.84313,1.05017
363.688,21.03358,-1.86367,1.0429
364.288,21.05207,-1.88164,1.03329
364.888,21.07057,-1.90162,1.0247
365.488,21.08902,-1.92036,1.01644
366.088,21.10743,-1.93806,1.00701
366.688,21.12588,-1.95713,0.99538
367.288,21.14433,-1.97528,0.98268
367.888,21.16274,-1.99696,0.97236
368.488,21.18114,-2.0141,0.9596
369.088,21.19956,-2.03563,0.94474
369.688,21.2179,-2.05066,0.93309
370.288,21.2363,-2.07022,0.9167
370.888,21.25477,-2.08631,0.90442
371.488,21.27326,-2.10557,0.88928
372.088,21.29179,-2.12234,0.87401
372.688,21.3103,-2.13975,0.85582
373.288,21.32876,-2.15623,0.83977
373.888,21.34721,-2.17209,0.82529
374.488,21.36561,-2.18956,0.80692
375.088,21.384,-2.20446,0.7892
375.688,21.40249,-2.22196,0.77297
376.288,21.42099,-2.23571,0.7567
376.888,21.43937,-2.25322,0.73708
377.488,21.45789,-2.26691,0.71982
378.088,21.4764,-2.28363,0.70237
378.688,21.49489,-2.29689,0.68283
379.288,21.51335,-2.31239,0.6652
379.888,21.53193,-2.32571,0.64764
380.488,21.55043,-2.33994,0.62853
381.088,21.56888,-2.35346,0.61094
381.688,21.58733,-2.36609,0.59329
382.288,21.60582,-2.37993,0.57544
382.888,21.62432,-2.39132,0.55864
383.488,21.64287,-2.40394,0.542
384.088,21.66141,-2.41372,0.52081
384.688,21.67992,-2.42532,0.50463
385.288,21.69847,-2.43328,0.48748
385.888,21.71697,-2.44293,0.47355
386.488,21.73548,-2.45214,0.45325
387.088,21.75396,-2.46402,0.43954
387.688,21.77248,-2.47402,0.42333
388.288,21.79101,-2.48384,0.40682
388.888,21.80953,-2.49253,0.39206
389.488,21.82803,-2.5007,0.37813
390.088,21.84666,-2.50912,0.36466
390.688,21.86525,-2.5161,0.34826
391.288,21.88376,-2.52413,0.33491
391.888,21.90221,-2.53021,0.32211
392.488,21.92081,-2.53756,0.31013
393.088,21.93934,-2.54268,0.29736
393.688,21.95791,-2.54953,0.28334
394.288,21.97657,-2.55496,0.26972
394.888,21.99531,-2.5617,0.26072
395.488,22.01386,-2.56676,0.24577
396.088,22.03243,-2.57147,0.23193
396.688,22.05096,-2.57533,0.22197
397.288,22.0695,-2.58012,0.20999
397.888,22.08804,-2.58372,0.19909
398.488,22.10665,-2.58867,0.18694
399.088,22.12525,-2.59215,0.17848
399.688,22.1439,-2.5969,0.16742
400.288,22.16257,-2.60054,0.1566
400.888,22.18121,-2.604,0.1494
401.488,22.19984,-2.60697,0.13872
402.088,22.21854,-2.61011,0.13189
402.688,22.23717,-2.61349,0.12091
403.288,22.25581,-2.61635,0.11357
403.888,22.27449,-2.61975,0.10514
404.488,22.2931,-2.62357,0.09661487
405.088,22.31175,-2.62624,0.08889798
405.688,22.3304,-2.62898,0.07989228
406.288,22.34906,-2.6319,0.07389176
406.888,22.36777,-2.6353,0.06560204
407.488,22.3865,-2.63835,0.05415243
408.088,22.40514,-2.64051,0.04949667
408.688,22.42376,-2.6435,0.04147577
409.288,22.44245,-2.64653,0.03392655
409.888,22.46107,-2.64869,0.02640295
410.488,22.4797,-2.65083,0.02009786
411.088,22.49849,-2.6531,0.01016329
411.688,22.51724,-2.65652,0.004498932
412.288,22.53597,-2.65887,-0.001348834
412.888,22.55463,-2.66106,-0.009508879
413.488,22.57339,-2.66291,-0.01500512
414.088,22.59204,-2.66421,-0.02267948
414.688,22.61075,-2.66577,-0.02829185
415.288,22.62946,-2.66814,-0.03408209
415.888,22.64822,-2.67116,-0.04044763
416.488,22.66695,-2.67401,-0.04704221
417.088,22.68568,-2.67597,-0.05079669
417.688,22.70438,-2.67859,-0.0584294
418.288,22.72309,-2.68171,-0.06234782
418.888,22.74178,-2.684,-0.06696973
419.488,22.76047,-2.68595,-0.07605329
420.088,22.77904,-2.68817,-0.0815778
420.688,22.7977,-2.68971,-0.08457854
421.288,22.81647,-2.69012,-0.09077793
421.888,22.8352,-2.69118,-0.0940389
422.488,22.854,-2.693,-0.09870721
423.088,22.87295,-2.69692,-0.1055
423.688,22.89178,-2.70088,-0.10887
424.288,22.91058,-2.70449,-0.11138
424.888,22.92936,-2.70663,-0.11602
425.488,22.94814,-2.70873,-0.12246
426.088,22.9669,-2.70957,-0.12515
426.688,22.98562,-2.71214,-0.12817
427.288,23.00438,-2.71436,-0.13248
427.888,23.02311,-2.71689,-0.13589
428.488,23.04191,-2.71903,-0.13963
429.088,23.06075,-2.72141,-0.13937
429.688,23.07958,-2.72366,-0.14365
430.288,23.09833,-2.72591,-0.14687
430.888,23.11718,-2.72787,-0.1483
431.488,23.13597,-2.72952,-0.15094
432.088,23.15472,-2.73076,-0.15338
432.688,23.17355,-2.73224,-0.15518
433.288,23.19238,-2.73418,-0.15999
433.888,23.21117,-2.736,-0.16061
434.488,23.22997,-2.73804,-0.16092
435.088,23.24878,-2.74034,-0.16132
435.688,23.26761,-2.74251,-0.16699
436.288,23.28639,-2.74437,-0.16394
436.888,23.30522,-2.74673,-0.1656
437.488,23.32404,-2.74898,-0.16524
438.088,23.34285,-2.75077,-0.16443
438.688,23.36167,-2.75224,-0.16445
439.288,23.38055,-2.75348,-0.16512
439.888,23.39939,-2.75522,-0.1676
440.488,23.41826,-2.75728,-0.16453
441.088,23.43714,-2.7593,-0.16342
441.688,23.45595,-2.76113,-0.16539
442.288,23.47481,-2.76278,-0.16349
442.888,23.49372,-2.7651,-0.16017
443.488,23.51263,-2.76756,-0.16052
444.088,23.53151,-2.76975,-0.16213
444.688,23.55045,-2.77163,-0.15856
445.288,23.56938,-2.77375,-0.15679
445.888,23.58827,-2.77584,-0.15467
446.488,23.60719,-2.77811,-0.15346
447.088,23.62612,-2.78003,-0.1533
447.688,23.64502,-2.78229,-0.14998
448.288,23.66392,-2.78539,-0.1499
448.888,23.68288,-2.78782,-0.14531
449.488,23.70183,-2.78967,-0.14301
450.088,23.7208,-2.79136,-0.14021
450.688,23.73976,-2.79266,-0.13705
451.288,23.75871,-2.79387,-0.13372
451.888,23.77764,-2.79518,-0.13264
452.488,23.79661,-2.79729,-0.12774
453.088,23.81554,-2.79924,-0.1273
453.688,23.83453,-2.80126,-0.12385
454.288,23.85349,-2.80262,-0.12035
454.888,23.87242,-2.80394,-0.11769
455.488,23.8914,-2.80527,-0.1131
456.088,23.91042,-2.8071,-0.10993
456.688,23.9294,-2.8092,-0.10411
457.288,23.94839,-2.81129,-0.1028
457.888,23.96748,-2.81327,-0.09868589
458.488,23.98651,-2.81531,-0.09644326
459.088,24.00549,-2.81726,-0.09299525
459.688,24.02457,-2.8193,-0.08705411
460.288,24.04355,-2.82069,-0.08242418
460.888,24.06251,-2.82217,-0.07753735
461.488,24.08151,-2.8234,-0.07797755
462.088,24.10057,-2.8247,-0.07357113
462.688,24.11957,-2.8261,-0.06661828
463.288,24.13861,-2.82757,-0.06358688
463.888,24.15769,-2.8291,-0.06038022
464.488,24.17673,-2.83104,-0.0575573
465.088,24.19578,-2.83264,-0.05180077
465.688,24.21481,-2.83432,-0.04826122
466.288,24.23388,-2.83538,-0.04514214
466.888,24.25293,-2.83665,-0.04105498
467.488,24.27203,-2.83802,-0.03478251
468.088,24.29111,-2.83929,-0.03260193
468.688,24.31016,-2.83962,-0.02839512
469.288,24.32926,-2.84108,-0.02561106
469.888,24.34821,-2.84289,-0.02473604
470.488,24.36726,-2.8446,-0.01657324
471.088,24.3863,-2.84556,-0.01413393
471.688,24.40541,-2.84646,-0.01107114
472.288,24.42449,-2.84827,-0.007646977
472.888,24.44373,-2.8502,-0.005721166
473.488,24.46283,-2.85152,-0.000478424
474.088,24.48198,-2.85271,0.006083188
474.688,24.50113,-2.85422,0.006652397
475.288,24.52024,-2.85557,0.009348081
475.888,24.53931,-2.85591,0.01240276
476.488,24.55841,-2.85755,0.01686253
477.088,24.57751,-2.85848,0.01738181
477.688,24.59664,-2.85993,0.02052475
478.288,24.61581,-2.86212,0.02219883
478.888,24.63495,-2.86391,0.02571754
479.488,24.65408,-2.86523,0.02691947
480.088,24.67318,-2.86546,0.03256106
480.688,24.69225,-2.86658,0.03511258
481.288,24.71132,-2.86864,0.03584027
481.888,24.73044,-2.87049,0.03872609
482.488,24.74955,-2.87213,0.04032313
483.088,24.76867,-2.87384,0.044844
483.688,24.78784,-2.87448,0.04694429
484.288,24.807,-2.87605,0.05051275
484.888,24.82612,-2.87839,0.05220939
485.488,24.8453,-2.88051,0.05418795
486.088,24.86443,-2.88048,0.05622145
486.688,24.88353,-2.88182,0.05825398
487.288,24.90268,-2.88134,0.05604262
487.888,24.92183,-2.8822,0.06120546
488.488,24.94096,-2.88382,0.06213716
489.088,24.96014,-2.88518,0.0633797
489.688,24.97928,-2.88596,0.06623137
490.288,24.99849,-2.88718,0.06871092
490.888,25.01764,-2.888,0.06898877
491.488,25.03683,-2.88848,0.07004361
492.088,25.05601,-2.8885,0.06737472
492.688,25.07519,-2.88905,0.07155139
493.288,25.09431,-2.88982,0.07433288
493.888,25.11354,-2.89021,0.07769749
494.488,25.13275,-2.89133,0.07650686
495.088,25.15194,-2.89195,0.07902261
495.688,25.17119,-2.89268,0.07842015
496.288,25.19039,-2.89408,0.07814186
496.888,25.2096,-2.89487,0.08077624
497.488,25.22883,-2.89604,0.08119753
498.088,25.248,-2.89754,0.08107193
498.688,25.26719,-2.89845,0.08121592
499.288,25.28645,-2.89911,0.08292576
499.888,25.30565,-2.90013,0.08400397
500.488,25.32484,-2.90036,0.08235753
501.088,25.3441,-2.90158,0.08621559
501.688,25.36336,-2.90282,0.09004472
502.288,25.38259,-2.90377,0.0860186
502.888,25.40185,-2.90483,0.08986559
503.488,25.42111,-2.90566,0.09105696
504.088,25.44035,-2.906,0.09120729
504.688,25.45958,-2.90767,0.0938411
505.288,25.47879,-2.90939,0.09274765
505.888,25.49806,-2.9104,0.09454654
506.488,25.5173,-2.91144,0.09599191
507.088,25.53652,-2.91253,0.09468533
507.688,25.55583,-2.9136,0.09475771
508.288,25.57511,-2.91378,0.09633918
508.888,25.59435,-2.91546,0.09510096
509.488,25.6137,-2.91645,0.09665523
510.088,25.63295,-2.91699,0.09672346
510.688,25.65216,-2.91842,0.0984236
511.288,25.67145,-2.91864,0.09868286
511.888,25.69076,-2.92002,0.09811177
512.488,25.71004,-2.91996,0.09763662
513.088,25.72939,-2.92139,0.0973686
513.688,25.74869,-2.92138,0.0995456
514.288,25.76802,-2.92261,0.09784149
514.888,25.7873,-2.92268,0.09844255
515.488,25.80663,-2.9227,0.10405
516.088,25.82593,-2.92309,0.10074
516.688,25.8452,-2.92408,0.10137
517.288,25.8645,-2.92449,0.10182
517.888,25.88377,-2.92535,0.10312
518.488,25.90307,-2.92682,0.10077
519.088,25.92239,-2.92773,0.10297
519.688,25.94167,-2.92869,0.10338
520.288,25.96103,-2.93007,0.10318
520.888,25.98037,-2.93082,0.10425
521.488,25.99973,-2.93151,0.10836
522.088,26.01918,-2.93322,0.10586
522.688,26.03847,-2.93471,0.10703
523.288,26.05779,-2.93537,0.1082
523.888,26.07712,-2.93669,0.10686
524.488,26.09644,-2.93812,0.10595
525.088,26.11576,-2.93994,0.10597
525.688,26.13515,-2.94098,0.10696
526.288,26.15453,-2.94132,0.10575
526.888,26.17395,-2.94227,0.10632
527.488,26.19329,-2.9428,0.10748
528.088,26.21276,-2.94382,0.10608
528.688,26.23225,-2.94417,0.10545
529.288,26.25167,-2.94416,0.10644
529.888,26.27114,-2.94501,0.10493
530.488,26.29057,-2.94548,0.10514
531.088,26.30995,-2.94623,0.10731
531.688,26.32935,-2.94693,0.10353
532.288,26.34875,-2.94704,0.10553
532.888,26.36813,-2.9477,0.10699
533.488,26.38756,-2.94879,0.10838
534.088,26.40694,-2.9502,0.10764
534.688,26.42635,-2.95032,0.10665
535.288,26.44581,-2.95028,0.1071
535.888,26.46524,-2.95146,0.1084
536.488,26.48471,-2.95167,0.10873
537.088,26.50415,-2.95215,0.10824
537.688,26.52355,-2.9531,0.1083
538.288,26.54297,-2.95472,0.10776
538.888,26.56237,-2.95565,0.10987
539.488,26.58179,-2.95642,0.10875
540.088,26.60117,-2.95729,0.10991
540.688,26.62066,-2.95778,0.10863
541.288,26.64021,-2.95777,0.11161
541.888,26.65969,-2.95883,0.11108
542.488,26.67925,-2.95922,0.11097
543.088,26.69877,-2.96074,0.11218
543.688,26.71821,-2.96349,0.10972
544.288,26.73764,-2.9638,0.11111
544.888,26.75704,-2.96506,0.10856
545.488,26.77647,-2.96503,0.10956
546.088,26.79594,-2.96515,0.10763
546.688,26.81535,-2.96641,0.10589
547.288,26.83485,-2.96635,0.11036
547.888,26.85438,-2.96634,0.10634
548.488,26.8739,-2.96634,0.10512
549.088,26.89342,-2.9663,0.10622
549.688,26.91294,-2.9673,0.10746
550.288,26.93241,-2.96758,0.1076
550.888,26.95194,-2.96897,0.10621
551.488,26.9714,-2.96916,0.10663
552.088,26.99082,-2.96999,0.10922
552.688,27.01031,-2.9705,0.10898
553.288,27.02977,-2.97051,0.10567
553.888,27.04917,-2.97051,0.10738
554.488,27.06871,-2.97191,0.10718
555.088,27.08821,-2.97249,0.10789
555.688,27.10777,-2.97342,0.10622
556.288,27.12728,-2.97501,0.10787
556.888,27.14683,-2.97584,0.11006
557.488,27.16631,-2.97655,0.11102
558.088,27.18578,-2.97772,0.10931
558.688,27.20522,-2.97801,0.11249
559.288,27.22476,-2.97931,0.11495
559.888,27.2443,-2.97985,0.11788
560.488,27.26377,-2.9811,0.12117
561.088,27.2833,-2.98109,0.12543
561.688,27.30287,-2.98247,0.12874
562.288,27.32236,-2.98264,0.13199
562.888,27.34192,-2.9838,0.13678
563.488,27.36149,-2.98443,0.13755
564.088,27.38095,-2.98484,0.14106
564.688,27.40045,-2.98419,0.14374
565.288,27.41994,-2.98527,0.14804
565.888,27.4395,-2.98554,0.14974
566.488,27.45904,-2.98554,0.15193
567.088,27.47869,-2.98684,0.1555
567.688,27.49825,-2.98686,0.15465
568.288,27.51783,-2.98686,0.15731
568.888,27.53736,-2.98685,0.15634
569.488,27.55687,-2.98659,0.15698
570.088,27.57641,-2.98653,0.15999
570.688,27.59593,-2.98648,0.16012
571.288,27.61545,-2.98773,0.16364
571.888,27.63499,-2.98788,0.16074
572.488,27.65455,-2.98903,0.1625
573.088,27.67413,-2.98917,0.16289
573.688,27.69372,-2.99055,0.16524
574.288,27.71333,-2.99062,0.16655
574.888,27.73294,-2.99194,0.16899
575.488,27.75261,-2.99214,0.16641
576.088,27.77226,-2.99366,0.17149
576.688,27.79192,-2.99367,0.16941
577.288,27.81152,-2.99502,0.17201
577.888,27.83114,-2.99494,0.17516
578.488,27.85062,-2.99607,0.17411
579.088,27.87015,-2.99629,0.17705
579.688,27.88975,-2.99668,0.18077
580.288,27.90936,-2.99772,0.17837
580.888,27.92905,-2.99772,0.17968
581.488,27.94865,-2.99901,0.17807
582.088,27.96832,-2.99903,0.17903
582.688,27.98794,-2.99959,0.17681
583.288,28.00757,-3.00037,0.17719
583.888,28.02727,-3.00035,0.17686
584.488,28.04702,-3.0016,0.17594
585.088,28.06671,-3.00177,0.17679
585.688,28.08647,-3.00178,0.17112
586.288,28.10616,-3.00176,0.17052
586.888,28.12587,-3.00367,0.17053
587.488,28.14552,-3.0045,0.16874
588.088,28.16518,-3.00441,0.16573
588.688,28.18489,-3.00579,0.16674
589.288,28.20458,-3.00593,0.1674
589.888,28.22428,-3.00447,0.16342
590.488,28.24399,-3.00564,0.1636
591.088,28.26373,-3.0042,0.16465
591.688,28.28343,-3.00428,0.1611
592.288,28.30318,-3.00429,0.16454
592.888,28.32288,-3.00504,0.16383
593.488,28.34253,-3.00568,0.16349
594.088,28.36216,-3.00693,0.16302
594.688,28.38184,-3.00858,0.16094
595.288,28.40155,-3.01009,0.16461
595.888,28.42127,-3.00997,0.16325
596.488,28.44097,-3.01068,0.16432
597.088,28.46075,-3.00999,0.16345
597.688,28.48043,-3.01008,0.16196
598.288,28.50013,-3.01142,0.16233
598.888,28.51983,-3.01215,0.1656
599.488,28.53956,-3.01295,0.16307
600.088,28.55923,-3.01495,0.16255
600.688,28.57894,-3.01527,0.16483
601.288,28.59866,-3.01527,0.16527
601.888,28.61837,-3.01523,0.1634
602.488,28.63809,-3.0166,0.16709
603.088,28.65785,-3.01521,0.16252
603.688,28.67761,-3.01544,0.16544
604.288,28.69735,-3.01521,0.16827
604.888,28.7171,-3.01516,0.16808
605.488,28.73677,-3.01516,0.16602
606.088,28.75648,-3.01516,0.16678
606.688,28.77621,-3.01516,0.16523
607.288,28.79599,-3.01516,0.16993
607.888,28.81573,-3.01516,0.16742
608.488,28.83549,-3.01519,0.16679
609.088,28.85518,-3.01574,0.16638
609.688,28.87494,-3.0165,0.16599
610.288,28.89468,-3.01699,0.16701
610.888,28.91439,-3.0178,0.16752
611.488,28.93416,-3.01784,0.16999
612.088,28.9539,-3.01947,0.16995
612.688,28.97362,-3.01977,0.17059
613.288,28.99338,-3.02087,0.16977
613.888,29.0131,-3.02081,0.16836
614.488,29.0329,-3.02253,0.17086
615.088,29.0527,-3.02345,0.17382
615.688,29.07246,-3.02345,0.17276
616.288,29.09225,-3.0244,0.17238
616.888,29.11199,-3.02478,0.17324
617.488,29.13174,-3.02477,0.17515
618.088,29.15152,-3.02565,0.17229
618.688,29.17127,-3.02611,0.17405
619.288,29.1911,-3.02612,0.17385
619.888,29.21091,-3.02613,0.17547
620.488,29.23071,-3.02623,0.17509
621.088,29.25052,-3.02744,0.17792
621.688,29.2703,-3.02744,0.17676
622.288,29.29013,-3.02747,0.17844
622.888,29.30987,-3.02877,0.17947
623.488,29.32967,-3.02875,0.18206
624.088,29.34948,-3.02875,0.18149
624.688,29.36928,-3.02875,0.18022
625.288,29.38909,-3.02777,0.18034
625.888,29.40895,-3.02876,0.18149
626.488,29.42881,-3.02876,0.18452
627.088,29.44863,-3.02875,0.1809
627.688,29.4685,-3.03006,0.18084
628.288,29.48824,-3.03008,0.18502
628.888,29.50805,-3.03009,0.18343
629.488,29.52782,-3.03091,0.18168
630.088,29.54758,-3.03173,0.18605
630.688,29.56735,-3.03192,0.1878
631.288,29.58725,-3.03309,0.18582
631.888,29.60708,-3.03353,0.18765
632.488,29.62692,-3.03437,0.19007
633.088,29.6468,-3.03435,0.19238
633.688,29.66655,-3.03435,0.19258
634.288,29.68632,-3.0345,0.19362
634.888,29.70614,-3.03578,0.1916
635.488,29.7259,-3.03451,0.19394
636.088,29.74573,-3.03436,0.19165
636.688,29.76552,-3.03438,0.19366
637.288,29.78534,-3.03495,0.19514
637.888,29.80515,-3.03567,0.19477
638.488,29.82499,-3.03557,0.19833
639.088,29.84483,-3.03694,0.19963
639.688,29.86466,-3.03694,0.1996
640.288,29.88453,-3.03806,0.19959
640.888,29.90436,-3.03835,0.20087
641.488,29.92415,-3.03983,0.2019
642.088,29.94398,-3.0398,0.19992
642.688,29.96378,-3.04114,0.20201
643.288,29.98357,-3.04107,0.20132
643.888,30.00343,-3.04142,0.20302
644.488,30.0233,-3.04237,0.20284
645.088,30.04316,-3.04236,0.20493
645.688,30.06299,-3.04236,0.20435
646.288,30.08288,-3.04236,0.20512
646.888,30.10274,-3.04236,0.20912
647.488,30.1226,-3.04232,0.20764
648.088,30.14245,-3.04329,0.20575
648.688,30.16232,-3.04367,0.20649
649.288,30.18209,-3.04368,0.20806
649.888,30.20188,-3.0437,0.21097
650.488,30.22173,-3.04336,0.21279
651.088,30.24155,-3.04438,0.21222
651.688,30.26137,-3.04433,0.21522
652.288,30.28127,-3.04433,0.21167
652.888,30.30112,-3.04433,0.21361
653.488,30.32095,-3.04435,0.2132
654.088,30.34085,-3.0436,0.21499
654.688,30.36069,-3.04446,0.21739
655.288,30.38059,-3.04452,0.21645
655.888,30.4004,-3.04367,0.21529
656.488,30.42027,-3.04442,0.21578
657.088,30.44016,-3.04499,0.21492
657.688,30.46002,-3.04502,0.21882
658.288,30.47989,-3.04632,0.21743
658.888,30.49973,-3.0463,0.21925
659.488,30.51959,-3.0463,0.22109
660.088,30.53946,-3.04631,0.21632
660.688,30.5593,-3.04762,0.22053
661.288,30.57921,-3.04762,0.21886
661.888,30.59907,-3.04892,0.22264
662.488,30.6189,-3.04893,0.22439
663.088,30.63876,-3.04894,0.22444
663.688,30.65865,-3.04987,0.22336
664.288,30.67854,-3.05025,0.22452
664.888,30.6984,-3.05025,0.22447
665.488,30.7183,-3.05025,0.22432
666.088,30.7382,-3.05025,0.22487
666.688,30.75809,-3.05026,0.22653
667.288,30.77802,-3.05113,0.22442
667.888,30.79786,-3.05157,0.22583
668.488,30.8178,-3.05157,0.22584
669.088,30.83766,-3.05157,0.22587
669.688,30.85752,-3.05157,0.22676
670.288,30.87731,-3.05153,0.22449
670.888,30.89723,-3.0528,0.22143
671.488,30.91711,-3.05288,0.22089
672.088,30.93694,-3.0529,0.22226
672.688,30.9569,-3.05365,0.226
673.288,30.97679,-3.05308,0.22393
673.888,30.9966,-3.0529,0.22226
674.488,31.01654,-3.05289,0.22406
675.088,31.03647,-3.05289,0.21985
675.688,31.0564,-3.05289,0.22167
676.288,31.07633,-3.05288,0.22002
676.888,31.09632,-3.05397,0.21839
677.488,31.11623,-3.0541,0.21909
678.088,31.13604,-3.0555,0.21833
678.688,31.15596,-3.05552,0.21823
679.288,31.17581,-3.05551,0.21799
679.888,31.19565,-3.05653,0.2161
680.488,31.21551,-3.05681,0.21395
681.088,31.23543,-3.05685,0.21685
681.688,31.25538,-3.0574,0.21437
682.288,31.27535,-3.05757,0.21391
682.888,31.29536,-3.05694,0.21435
683.488,31.31528,-3.05822,0.21364
684.088,31.33516,-3.05816,0.21139
684.688,31.3551,-3.05815,0.21077
685.288,31.37499,-3.05815,0.21179
685.888,31.39496,-3.05814,0.21549
686.488,31.41488,-3.05805,0.21311
687.088,31.43482,-3.05942,0.21177
687.688,31.45467,-3.05949,0.21122
688.288,31.47459,-3.05998,0.21225
688.888,31.49452,-3.06078,0.20893
689.488,31.51444,-3.06167,0.20923
690.088,31.53434,-3.06208,0.20849
690.688,31.5543,-3.0621,0.20548
691.288,31.57423,-3.0621,0.20568
691.888,31.59421,-3.06211,0.20645
692.488,31.61418,-3.06219,0.20539
693.088,31.63413,-3.06086,0.205
693.688,31.65407,-3.06082,0.20589
694.288,31.67396,-3.06123,0.2032
694.888,31.69397,-3.06211,0.2023
695.488,31.71393,-3.0621,0.20335
696.088,31.7339,-3.06211,0.20248
696.688,31.75387,-3.06234,0.19986
697.288,31.77381,-3.06347,0.19891
697.888,31.7937,-3.06338,0.19842
698.488,31.81366,-3.06444,0.19713
699.088,31.83361,-3.06472,0.19448
699.688,31.85353,-3.06468,0.19652
700.288,31.87353,-3.06323,0.1956
700.888,31.89349,-3.0645,0.19105
701.488,31.91351,-3.06441,0.19166
702.088,31.93344,-3.0644,0.19457
702.688,31.9534,-3.0644,0.19172
703.288,31.97333,-3.0644,0.19351
703.888,31.99328,-3.0644,0.19222
704.488,32.01322,-3.06439,0.19097
705.088,32.03318,-3.06415,0.18972
705.688,32.05315,-3.06388,0.18967
706.288,32.07312,-3.06406,0.19076
706.888,32.09311,-3.06406,0.18777
707.488,32.11316,-3.06481,0.18704
708.088,32.13324,-3.06535,0.18755
708.688,32.15326,-3.06513,0.18365
709.288,32.17332,-3.06468,0.18404
709.888,32.19334,-3.06595,0.18423
710.488,32.21329,-3.06571,0.18233
711.088,32.23328,-3.06508,0.18038
711.688,32.25328,-3.06604,0.17862
712.288,32.27327,-3.06569,0.18013
712.888,32.29332,-3.06472,0.18161
713.488,32.31334,-3.06469,0.17935
714.088,32.33321,-3.06572,0.1784
714.688,32.35317,-3.06717,0.17826
715.288,32.3732,-3.06887,0.17738
715.888,32.39322,-3.06872,0.17633
716.488,32.41332,-3.07002,0.17768
717.088,32.43347,-3.07011,0.17604
717.688,32.4535,-3.0701,0.17453
718.288,32.4735,-3.07089,0.17557
718.888,32.49354,-3.0714,0.1757
719.488,32.51354,-3.07142,0.17531
720.088,32.53358,-3.07134,0.17422
720.688,32.55362,-3.07283,0.17316
721.288,32.57365,-3.07295,0.17368
721.888,32.59373,-3.07291,0.16931
722.488,32.61374,-3.07396,0.16939
723.088,32.63366,-3.07404,0.17031
723.688,32.6537,-3.07279,0.16786
724.288,32.67368,-3.07285,0.1621
724.888,32.6937,-3.07286,0.16293
725.488,32.71385,-3.07203,0.16027
726.088,32.73392,-3.07156,0.15944
726.688,32.754,-3.07153,0.15775
727.288,32.77409,-3.07153,0.1605
727.888,32.79413,-3.07153,0.15546
728.488,32.81418,-3.07153,0.15731
729.088,32.83421,-3.07148,0.1539
729.688,32.8542,-3.07259,0.15555
730.288,32.87416,-3.07284,0.15181
730.888,32.89421,-3.07285,0.15357
731.488,32.91418,-3.07285,0.14966
732.088,32.93426,-3.07285,0.14886
732.688,32.95433,-3.07285,0.15033
733.288,32.97435,-3.07292,0.14822
733.888,32.99446,-3.07424,0.14515
734.488,33.0145,-3.07412,0.14185
735.088,33.03451,-3.07524,0.14253
735.688,33.0546,-3.07547,0.14566
736.288,33.07465,-3.07555,0.14035
736.888,33.09474,-3.077,0.13971
737.488,33.11483,-3.07682,0.14424
738.088,33.1349,-3.07817,0.14183
738.688,33.15498,-3.07822,0.13775
739.288,33.17508,-3.07822,0.13597
739.888,33.19513,-3.07812,0.13609
740.488,33.21516,-3.07683,0.13252
741.088,33.23518,-3.0769,0.13015
741.688,33.25519,-3.07692,0.12962
742.288,33.27527,-3.07706,0.12821
742.888,33.29537,-3.07716,0.12788
743.488,33.31547,-3.07693,0.12822
744.088,33.3356,-3.07703,0.12199
744.688,33.35568,-3.0783,0.12456
745.288,33.37568,-3.07824,0.12445
745.888,33.39579,-3.07826,0.12298
746.488,33.41587,-3.07775,0.12084
747.088,33.43577,-3.07919,0.12266
747.688,33.45579,-3.07911,0.11884
748.288,33.47588,-3.0791,0.11833
748.888,33.49593,-3.07907,0.11364
749.488,33.51609,-3.07843,0.11584
750.088,33.53637,-3.07765,0.11355
750.688,33.55647,-3.07697,0.11441
751.288,33.57662,-3.07625,0.11393
751.888,33.59676,-3.07671,0.10995
752.488,33.6169,-3.07759,0.10781
753.088,33.63703,-3.07753,0.10882
753.688,33.65719,-3.0788,0.10842
754.288,33.67732,-3.07888,0.10782
754.888,33.69741,-3.07897,0.10436
755.488,33.71758,-3.07892,0.10242
756.088,33.73772,-3.08039,0.10299
756.688,33.75789,-3.08063,0.1023
757.288,33.77806,-3.08197,0.10256
757.888,33.79821,-3.08195,0.10249
758.488,33.81834,-3.08195,0.09789753
759.088,33.83843,-3.08194,0.09782307
759.688,33.85852,-3.0826,0.09574724
760.288,33.8786,-3.08259,0.09536954
760.888,33.89872,-3.08392,0.09918414
761.488,33.91885,-3.08393,0.09288883
762.088,33.939,-3.08393,0.09469147
762.688,33.95918,-3.08393,0.09180243
763.288,33.97929,-3.08393,0.09332899
763.888,33.99938,-3.08393,0.09399962
764.488,34.01948,-3.08393,0.09464414
765.088,34.03964,-3.08395,0.08959569
765.688,34.05978,-3.08458,0.09074349
766.288,34.08001,-3.0864,0.08994582
766.888,34.10019,-3.08742,0.08960145
767.488,34.12034,-3.08774,0.08719424
768.088,34.14051,-3.08882,0.08961361
768.688,34.16073,-3.08751,0.08977346
769.288,34.18088,-3.08671,0.08610874
769.888,34.20109,-3.08602,0.08342076
770.488,34.22129,-3.08597,0.08442416
771.088,34.24146,-3.08716,0.08202356
771.688,34.26162,-3.08733,0.08084092
772.288,34.28179,-3.08733,0.08117592
772.888,34.30193,-3.08733,0.08027472
773.488,34.32206,-3.08731,0.07968432
774.088,34.34223,-3.0877,0.07646371
774.688,34.36241,-3.08785,0.0780095
775.288,34.38262,-3.08829,0.07573123
775.888,34.40283,-3.08831,0.07626631
776.488,34.42298,-3.08831,0.07378782
777.088,34.44312,-3.08831,0.07032633
777.688,34.46329,-3.08831,0.07246369
778.288,34.48348,-3.08828,0.07390671
778.888,34.50367,-3.08867,0.07048588
779.488,34.52391,-3.08864,0.06863428
780.088,34.54409,-3.08865,0.07264703
780.688,34.56425,-3.08891,0.06990909
781.288,34.58438,-3.09001,0.06657761
781.888,34.60452,-3.08996,0.06482066
782.488,34.62466,-3.08997,0.06655012
783.088,34.6449,-3.09005,0.06514301
783.688,34.66508,-3.08869,0.06695491
784.288,34.68527,-3.08865,0.06473068
784.888,34.70548,-3.08866,0.06678132
785.488,34.72562,-3.08902,0.06459056
786.088,34.74576,-3.0899,0.06382592
786.688,34.76592,-3.09124,0.06122191
787.288,34.78603,-3.09127,0.05929368
787.888,34.80624,-3.09127,0.05986121
788.488,34.82642,-3.09127,0.06001962
789.088,34.84668,-3.09143,0.06217183
789.688,34.86687,-3.09263,0.06023957
790.288,34.88705,-3.0926,0.06182178
790.888,34.90721,-3.09143,0.05942898
791.488,34.92741,-3.09129,0.05629684
792.088,34.94754,-3.09134,0.05616076
792.688,34.96767,-3.09118,0.05765556
793.288,34.98776,-3.09127,0.05408564
793.588,34.99785,-3.09128,0.0542874