File: 01_Data/Plywood/STA/N2/30K_min/Plywood_STA_N2_30KData_22253_R2.csv
##Temp./Â°C,Time/min,Mass loss(subtr.2)/mg,DSC(subtr.2)/(mW/mg)
48.795,10.00917,-0.08019,0.009836841
49.395,10.52693,-0.08328058,0.03913344
49.995,10.64523,-0.08377701,0.06427715
50.595,10.7295,-0.08448252,0.08892478
51.195,10.79747,-0.08404105,0.11074
51.795,10.85631,-0.086,0.13069
52.395,10.90917,-0.08622001,0.15333
52.995,10.95678,-0.08616992,0.17096
53.595,11.00106,-0.08528618,0.18821
54.195,11.04293,-0.08541834,0.20726
54.795,11.08225,-0.0874608,0.22472
55.395,11.11981,-0.0888424,0.2415
55.995,11.1555,-0.08992599,0.25721
56.595,11.18994,-0.09035781,0.27162
57.195,11.22308,-0.08993081,0.28687
57.795,11.25524,-0.08972768,0.30113
58.395,11.2864,-0.08980505,0.31516
58.995,11.31689,-0.0901177,0.32905
59.595,11.34641,-0.0905962,0.34202
60.195,11.3753,-0.09104811,0.35574
60.795,11.40362,-0.0903149,0.36636
61.395,11.43148,-0.08986535,0.37933
61.995,11.4589,-0.08972541,0.38761
62.595,11.48587,-0.08899832,0.4015
63.195,11.51239,-0.08992507,0.41329
63.795,11.53839,-0.09161634,0.42435
64.395,11.56403,-0.09184314,0.43499
64.995,11.58929,-0.09126967,0.44387
65.595,11.61435,-0.09166346,0.4569
66.195,11.63925,-0.09203052,0.46316
66.795,11.66395,-0.09142497,0.47302
67.395,11.68838,-0.09103894,0.48499
67.995,11.71252,-0.0903689,0.49215
68.595,11.73638,-0.09023777,0.5038
69.195,11.76012,-0.09120458,0.51102
69.795,11.78362,-0.09230467,0.51911
70.395,11.80712,-0.09243969,0.53026
70.995,11.83035,-0.09336341,0.53768
71.595,11.85343,-0.0934754,0.5465
72.195,11.87637,-0.09330252,0.55529
72.795,11.8991,-0.09324263,0.56296
73.395,11.92179,-0.09372753,0.57076
73.995,11.94428,-0.09400726,0.57842
74.595,11.96677,-0.09554539,0.58626
75.195,11.98906,-0.09564738,0.59369
75.795,12.01128,-0.09619269,0.60059
76.395,12.03348,-0.09589126,0.61014
76.995,12.05552,-0.09579946,0.61621
77.595,12.07754,-0.09451991,0.62375
78.195,12.09951,-0.09562201,0.63045
78.795,12.1212,-0.0957616,0.64004
79.395,12.14296,-0.09497014,0.64642
79.995,12.16468,-0.09568861,0.6551
80.595,12.18629,-0.09581992,0.66003
81.195,12.2079,-0.09640277,0.66525
81.795,12.22927,-0.09739449,0.67508
82.395,12.25068,-0.09704511,0.68407
82.995,12.27196,-0.09728915,0.69013
83.595,12.2932,-0.09743838,0.69614
84.195,12.31455,-0.0973101,0.70312
84.795,12.33573,-0.0986915,0.70935
85.395,12.35684,-0.09879412,0.71617
85.995,12.37792,-0.09891362,0.7245
86.595,12.39879,-0.10035,0.72983
87.195,12.41973,-0.10037,0.73507
87.795,12.44059,-0.10173,0.74392
88.395,12.46151,-0.10075,0.74907
88.995,12.48241,-0.10194,0.75529
89.595,12.5032,-0.1021,0.75851
90.195,12.5237,-0.10328,0.76568
90.795,12.54434,-0.10234,0.77168
91.395,12.56489,-0.10183,0.77529
91.995,12.58546,-0.10318,0.78055
92.595,12.60621,-0.10326,0.78662
93.195,12.62695,-0.10192,0.78877
93.795,12.64754,-0.10262,0.79544
94.395,12.66809,-0.10322,0.79858
94.995,12.68858,-0.10449,0.80424
95.595,12.709,-0.10453,0.80761
96.195,12.72951,-0.10489,0.8136
96.795,12.74991,-0.10583,0.81444
97.395,12.7703,-0.10721,0.81731
97.995,12.79068,-0.10716,0.82283
98.595,12.81091,-0.10714,0.82156
99.195,12.83109,-0.10798,0.82453
99.795,12.85137,-0.10849,0.82781
100.395,12.8716,-0.10879,0.8298
100.995,12.89187,-0.1108,0.83042
101.595,12.91212,-0.11072,0.83326
102.195,12.93235,-0.11197,0.83269
102.795,12.95262,-0.1121,0.83284
103.395,12.97286,-0.1121,0.83708
103.995,12.99315,-0.1121,0.83665
104.595,13.01337,-0.1121,0.83803
105.195,13.03358,-0.11217,0.83721
105.795,13.0537,-0.113,0.83668
106.395,13.0738,-0.11279,0.8367
106.995,13.09393,-0.113,0.83924
107.595,13.11416,-0.11412,0.83677
108.195,13.13444,-0.11408,0.83462
108.795,13.15439,-0.11409,0.83279
109.395,13.17437,-0.11455,0.83165
109.995,13.19416,-0.1153,0.83004
110.595,13.2141,-0.11664,0.82466
111.195,13.23415,-0.1167,0.82701
111.795,13.25443,-0.11759,0.82077
112.395,13.27472,-0.118,0.8225
112.995,13.29505,-0.11802,0.82041
113.595,13.31526,-0.11802,0.81699
114.195,13.33536,-0.11802,0.81482
114.795,13.35544,-0.11799,0.81007
115.395,13.37548,-0.11741,0.80791
115.995,13.39549,-0.11671,0.80497
116.595,13.41546,-0.11706,0.80243
117.195,13.43542,-0.11806,0.798
117.795,13.45536,-0.11802,0.79437
118.395,13.47532,-0.11793,0.7913
118.995,13.49533,-0.11918,0.78825
119.595,13.51529,-0.11923,0.78565
120.195,13.53527,-0.11923,0.78358
120.795,13.55523,-0.11926,0.7791
121.395,13.57509,-0.11979,0.7759
121.995,13.59489,-0.12055,0.77271
122.595,13.61468,-0.12054,0.77095
123.195,13.63444,-0.12054,0.76884
123.795,13.65421,-0.12052,0.76484
124.395,13.67402,-0.12122,0.76198
124.995,13.69376,-0.12152,0.75741
125.595,13.7135,-0.12167,0.75536
126.195,13.7333,-0.12186,0.75283
126.795,13.75303,-0.12205,0.75006
127.395,13.77271,-0.12323,0.74739
127.995,13.79241,-0.12318,0.74584
128.595,13.81202,-0.12318,0.7439
129.195,13.8316,-0.12318,0.74246
129.795,13.85123,-0.12371,0.73959
130.395,13.8708,-0.12446,0.73794
130.995,13.89042,-0.12519,0.7379
131.595,13.91,-0.12515,0.73738
132.195,13.92952,-0.12515,0.73378
132.795,13.94907,-0.12515,0.73317
133.395,13.96858,-0.12515,0.73461
133.995,13.9881,-0.12515,0.732
134.595,14.00758,-0.12515,0.73213
135.195,14.02707,-0.12523,0.72998
135.795,14.04649,-0.12387,0.72992
136.395,14.06594,-0.1243,0.72962
136.995,14.08537,-0.12449,0.72834
137.595,14.10481,-0.1248,0.72976
138.195,14.12422,-0.12586,0.73055
138.795,14.14361,-0.12581,0.73123
139.395,14.16297,-0.12581,0.73124
139.995,14.18224,-0.12581,0.73118
140.595,14.2015,-0.12581,0.72998
141.195,14.22073,-0.12581,0.73249
141.795,14.24002,-0.12581,0.73237
142.395,14.25923,-0.12581,0.73188
142.995,14.2785,-0.12804,0.7346
143.595,14.29774,-0.1281,0.7348
144.195,14.31694,-0.12811,0.7357
144.795,14.33608,-0.12811,0.73741
145.395,14.35531,-0.1281,0.7386
145.995,14.37443,-0.129,0.73897
146.595,14.39338,-0.1294,0.73984
147.195,14.41234,-0.12943,0.73992
147.795,14.43126,-0.12943,0.74165
148.395,14.45039,-0.12943,0.74553
148.995,14.46962,-0.12943,0.74487
149.595,14.4889,-0.12943,0.74657
150.195,14.50823,-0.12943,0.74626
150.795,14.52741,-0.12943,0.74926
151.395,14.54654,-0.12943,0.75159
151.995,14.56555,-0.12943,0.75235
152.595,14.58459,-0.12943,0.75581
153.195,14.60358,-0.12943,0.75827
153.795,14.62262,-0.12943,0.75776
154.395,14.64162,-0.12942,0.76041
154.995,14.66062,-0.12982,0.76133
155.595,14.67966,-0.13008,0.76226
156.195,14.69868,-0.13073,0.76734
156.795,14.71769,-0.13074,0.76838
157.395,14.73668,-0.13074,0.77149
157.995,14.75563,-0.13065,0.77056
158.595,14.77461,-0.132,0.77485
159.195,14.79354,-0.13206,0.77666
159.795,14.81246,-0.13206,0.78053
160.395,14.83137,-0.13206,0.78089
160.995,14.85035,-0.13206,0.78543
161.595,14.86919,-0.13206,0.78547
162.195,14.88811,-0.13206,0.78861
162.795,14.90697,-0.13206,0.78919
163.395,14.92588,-0.13203,0.79305
163.995,14.94473,-0.13242,0.79592
164.595,14.96366,-0.13239,0.79827
165.195,14.98256,-0.13239,0.80116
165.795,15.0014,-0.13239,0.80496
166.395,15.02018,-0.13239,0.80372
166.995,15.03899,-0.13239,0.80832
167.595,15.0578,-0.13239,0.80988
168.195,15.07654,-0.13234,0.81425
168.795,15.09537,-0.13353,0.81572
169.395,15.11422,-0.1337,0.82
169.995,15.13299,-0.13371,0.81982
170.595,15.15174,-0.13371,0.82246
171.195,15.17052,-0.13371,0.82531
171.795,15.18932,-0.13371,0.83007
172.395,15.2081,-0.13371,0.83151
172.995,15.22685,-0.13366,0.83322
173.595,15.24561,-0.13486,0.83319
174.195,15.26435,-0.13502,0.83715
174.795,15.28297,-0.13505,0.83847
175.395,15.30165,-0.13522,0.84325
175.995,15.32037,-0.13634,0.8422
176.595,15.33906,-0.13634,0.84491
177.195,15.35775,-0.13634,0.84854
177.795,15.37645,-0.13636,0.85085
178.395,15.39515,-0.13578,0.85497
178.995,15.41378,-0.13569,0.85767
179.595,15.43244,-0.13571,0.85921
180.195,15.45106,-0.13708,0.86288
180.795,15.46964,-0.137,0.86288
181.395,15.48817,-0.137,0.86925
181.995,15.5067,-0.13702,0.86932
182.595,15.52521,-0.13758,0.87188
183.195,15.54378,-0.13833,0.87384
183.795,15.56232,-0.13832,0.87834
184.395,15.58086,-0.13832,0.87902
184.995,15.59938,-0.13832,0.88311
185.595,15.61786,-0.13832,0.88602
186.195,15.63629,-0.13834,0.88864
186.795,15.6548,-0.13869,0.89165
187.395,15.67331,-0.13895,0.89263
187.995,15.69181,-0.13897,0.89516
188.595,15.71031,-0.13897,0.90007
189.195,15.72876,-0.13897,0.90137
189.795,15.74719,-0.13947,0.90178
190.395,15.7656,-0.14035,0.90452
190.995,15.78403,-0.14073,0.90806
191.595,15.80245,-0.14176,0.91079
192.195,15.82082,-0.14192,0.91349
192.795,15.83925,-0.14369,0.91682
193.395,15.85759,-0.14365,0.91977
193.995,15.87599,-0.14487,0.92056
194.595,15.89438,-0.145,0.92291
195.195,15.9128,-0.14501,0.92622
195.795,15.93114,-0.14499,0.92795
196.395,15.94958,-0.14569,0.93136
196.995,15.96792,-0.14633,0.93442
197.595,15.9863,-0.14647,0.93635
198.195,16.00467,-0.14773,0.93623
198.795,16.02299,-0.14774,0.94028
199.395,16.04134,-0.14834,0.94199
199.995,16.05965,-0.14834,0.9443
200.595,16.07797,-0.15024,0.94846
201.195,16.09628,-0.15029,0.94938
201.795,16.11466,-0.15079,0.95019
202.395,16.13297,-0.15159,0.95169
202.995,16.15129,-0.15214,0.95382
203.595,16.1696,-0.15301,0.95537
204.195,16.18797,-0.15389,0.95775
204.795,16.20631,-0.15434,0.96009
205.395,16.22459,-0.15441,0.95938
205.995,16.24289,-0.15574,0.96289
206.595,16.2612,-0.15561,0.96438
207.195,16.27944,-0.15678,0.96507
207.795,16.29773,-0.15719,0.96319
208.395,16.31603,-0.15758,0.9683
208.995,16.33432,-0.15854,0.96686
209.595,16.35261,-0.15844,0.97043
210.195,16.3709,-0.15961,0.96788
210.795,16.38913,-0.15982,0.96797
211.395,16.40743,-0.16039,0.96961
211.995,16.4257,-0.16046,0.97065
212.595,16.44397,-0.16039,0.97215
213.195,16.46226,-0.16166,0.97235
213.795,16.4806,-0.16179,0.97372
214.395,16.49886,-0.1632,0.97316
214.995,16.51711,-0.16368,0.9737
215.595,16.53535,-0.1648,0.97396
216.195,16.55358,-0.16559,0.97579
216.795,16.57174,-0.16614,0.97419
217.395,16.58996,-0.16653,0.97606
217.995,16.60814,-0.16773,0.97627
218.595,16.62632,-0.16815,0.9766
219.195,16.6445,-0.16814,0.97288
219.795,16.66277,-0.16884,0.97384
220.395,16.68101,-0.16942,0.97527
220.995,16.69925,-0.17013,0.97221
221.595,16.71755,-0.17102,0.97607
222.195,16.73579,-0.17218,0.97679
222.795,16.75398,-0.17242,0.97499
223.395,16.77218,-0.17376,0.97733
223.995,16.79035,-0.17404,0.97664
224.595,16.8085,-0.17549,0.97585
225.195,16.82673,-0.1768,0.97799
225.795,16.8449,-0.17729,0.97712
226.395,16.86311,-0.17856,0.97828
226.995,16.8813,-0.18019,0.97577
227.595,16.8995,-0.18189,0.97801
228.195,16.91766,-0.18307,0.97824
228.795,16.93584,-0.18481,0.97784
229.395,16.95408,-0.18648,0.98086
229.995,16.97231,-0.18806,0.98043
230.595,16.9905,-0.18988,0.97962
231.195,17.00866,-0.19103,0.98168
231.795,17.02687,-0.19229,0.98289
232.395,17.045,-0.19368,0.98493
232.995,17.06313,-0.19432,0.98633
233.595,17.08129,-0.19569,0.98903
234.195,17.09947,-0.19746,0.98735
234.795,17.1177,-0.19794,0.98621
235.395,17.13586,-0.19909,0.98988
235.995,17.15407,-0.20075,0.99379
236.595,17.17225,-0.20229,0.99254
237.195,17.19043,-0.20412,0.99385
237.795,17.20848,-0.20571,0.99567
238.395,17.2266,-0.2075,0.99698
238.995,17.24478,-0.21033,1.00077
239.595,17.26294,-0.21197,0.99954
240.195,17.28112,-0.21352,1.00097
240.795,17.29936,-0.215,1.00235
241.395,17.31754,-0.21674,1.00485
241.995,17.33565,-0.21831,1.00486
242.595,17.3538,-0.21982,1.00716
243.195,17.3719,-0.22045,1.00752
243.795,17.39007,-0.22211,1.00849
244.395,17.40823,-0.22391,1.01171
244.995,17.42639,-0.22537,1.01398
245.595,17.44451,-0.22708,1.01487
246.195,17.46267,-0.22896,1.01389
246.795,17.4808,-0.23083,1.01715
247.395,17.49895,-0.23208,1.01995
247.995,17.51708,-0.23327,1.02017
248.595,17.53519,-0.23498,1.02081
249.195,17.55323,-0.23699,1.02309
249.795,17.57134,-0.23939,1.02551
250.395,17.58945,-0.24134,1.02691
250.995,17.60765,-0.243,1.02748
251.595,17.62581,-0.24458,1.02975
252.195,17.64401,-0.2465,1.02831
252.795,17.66212,-0.24931,1.03136
253.395,17.68024,-0.25226,1.0317
253.995,17.6983,-0.25447,1.03122
254.595,17.71645,-0.25679,1.03259
255.195,17.73462,-0.25958,1.03541
255.795,17.75277,-0.26196,1.03751
256.395,17.7709,-0.26489,1.03811
256.995,17.78907,-0.26685,1.03818
257.595,17.80722,-0.26913,1.03889
258.195,17.8254,-0.27164,1.03907
258.795,17.84351,-0.27378,1.041
259.395,17.86165,-0.27601,1.04137
259.995,17.87977,-0.27801,1.0427
260.595,17.89782,-0.28005,1.04522
261.195,17.91585,-0.28221,1.0433
261.795,17.93398,-0.28513,1.04246
262.395,17.95211,-0.28741,1.04627
262.995,17.97016,-0.28905,1.04561
263.595,17.98832,-0.29154,1.04622
264.195,18.00648,-0.29417,1.04514
264.795,18.02461,-0.29638,1.04531
265.395,18.04274,-0.29843,1.04591
265.995,18.06088,-0.30029,1.04847
266.595,18.07894,-0.30249,1.04772
267.195,18.09707,-0.30456,1.04572
267.795,18.11519,-0.30696,1.04635
268.395,18.13324,-0.30939,1.04531
268.995,18.15138,-0.31199,1.04627
269.595,18.16958,-0.31533,1.04587
270.195,18.18765,-0.32005,1.04691
270.795,18.20574,-0.32355,1.04612
271.395,18.2239,-0.3262,1.04668
271.995,18.24202,-0.32952,1.04367
272.595,18.26007,-0.33282,1.04527
273.195,18.2782,-0.33513,1.04431
273.795,18.29634,-0.33767,1.04548
274.395,18.31452,-0.34124,1.04254
274.995,18.33262,-0.34414,1.04326
275.595,18.35067,-0.34692,1.0454
276.195,18.36883,-0.34965,1.04127
276.795,18.38694,-0.35276,1.04124
277.395,18.40497,-0.35583,1.04101
277.995,18.42297,-0.35869,1.04
278.595,18.44107,-0.36246,1.03942
279.195,18.4592,-0.3668,1.0365
279.795,18.47738,-0.36966,1.03871
280.395,18.49558,-0.37293,1.03623
280.995,18.51385,-0.37692,1.03717
281.595,18.53212,-0.38037,1.0328
282.195,18.55025,-0.38385,1.03261
282.795,18.56838,-0.38763,1.03353
283.395,18.58651,-0.39172,1.02859
283.995,18.60462,-0.39572,1.02989
284.595,18.62277,-0.39924,1.02915
285.195,18.64083,-0.4031,1.02541
285.795,18.65899,-0.40658,1.02382
286.395,18.6771,-0.40867,1.02506
286.995,18.69524,-0.41328,1.02212
287.595,18.71334,-0.41942,1.02114
288.195,18.73146,-0.42566,1.02098
288.795,18.74957,-0.43244,1.01789
289.395,18.76773,-0.43707,1.01636
289.995,18.78588,-0.44101,1.01377
290.595,18.80406,-0.44635,1.01411
291.195,18.82229,-0.45105,1.01088
291.795,18.84043,-0.45709,1.00742
292.395,18.85857,-0.4614,1.00798
292.995,18.87671,-0.46677,1.00426
293.595,18.89487,-0.47123,1.00294
294.195,18.913,-0.4769,0.99884
294.795,18.93112,-0.48228,0.99548
295.395,18.94929,-0.48816,0.99523
295.995,18.96745,-0.49386,0.99163
296.595,18.98552,-0.49868,0.99026
297.195,19.00367,-0.5043,0.98755
297.795,19.02182,-0.50897,0.98526
298.395,19.0399,-0.5152,0.98198
298.995,19.05809,-0.52042,0.97961
299.595,19.07628,-0.52794,0.97877
300.195,19.09448,-0.53383,0.97537
300.795,19.11266,-0.54057,0.97368
301.395,19.13088,-0.54653,0.96941
301.995,19.14904,-0.55309,0.96878
302.595,19.16721,-0.56003,0.96722
303.195,19.18531,-0.5665,0.96159
303.795,19.20344,-0.57445,0.96285
304.395,19.2216,-0.58111,0.95803
304.995,19.23976,-0.5896,0.95918
305.595,19.25791,-0.59598,0.95623
306.195,19.27607,-0.60453,0.95575
306.795,19.29423,-0.61139,0.95372
307.395,19.31227,-0.61939,0.95275
307.995,19.33027,-0.62681,0.95014
308.595,19.34822,-0.6348,0.94989
309.195,19.36639,-0.64354,0.94896
309.795,19.38455,-0.65114,0.94796
310.395,19.40286,-0.6608,0.94527
310.995,19.42121,-0.66829,0.94573
311.595,19.43963,-0.6783,0.94458
312.195,19.45787,-0.68561,0.9437
312.795,19.47607,-0.69505,0.94484
313.395,19.49427,-0.70336,0.94047
313.995,19.5125,-0.71364,0.94286
314.595,19.5306,-0.72304,0.94107
315.195,19.54877,-0.73268,0.94154
315.795,19.56697,-0.74295,0.9442
316.395,19.58515,-0.75244,0.94474
316.995,19.60331,-0.76391,0.94446
317.595,19.62158,-0.77391,0.94269
318.195,19.63978,-0.78612,0.94503
318.795,19.65801,-0.79511,0.94554
319.395,19.67626,-0.80682,0.94702
319.995,19.69449,-0.81656,0.94585
320.595,19.71269,-0.82799,0.9481
321.195,19.73091,-0.83786,0.9494
321.795,19.74912,-0.84861,0.94938
322.395,19.76736,-0.85974,0.95248
322.995,19.78558,-0.87011,0.95367
323.595,19.80387,-0.88282,0.95439
324.195,19.82214,-0.89409,0.95614
324.795,19.8404,-0.9079,0.95998
325.395,19.85861,-0.91848,0.96202
325.995,19.87689,-0.9323,0.96002
326.595,19.89514,-0.94301,0.96447
327.195,19.91342,-0.95555,0.96467
327.795,19.93165,-0.9668,0.96574
328.395,19.94993,-0.97936,0.96774
328.995,19.96819,-0.99153,0.96907
329.595,19.98645,-1.00307,0.97107
330.195,20.00468,-1.01663,0.97304
330.795,20.02304,-1.02826,0.97497
331.395,20.04138,-1.04272,0.9762
331.995,20.05971,-1.05403,0.97873
332.595,20.07802,-1.06888,0.98072
333.195,20.09636,-1.08074,0.98227
333.795,20.11468,-1.09589,0.98001
334.395,20.13294,-1.10938,0.98332
334.995,20.15109,-1.12375,0.98388
335.595,20.16936,-1.13746,0.98519
336.195,20.18762,-1.1511,0.98761
336.795,20.20591,-1.16659,0.98654
337.395,20.22426,-1.18041,0.99018
337.995,20.24273,-1.19688,0.99024
338.595,20.2611,-1.20953,0.99181
339.195,20.27948,-1.22655,0.99153
339.795,20.2978,-1.23996,0.99308
340.395,20.31611,-1.25728,0.99535
340.995,20.33442,-1.27164,0.99434
341.595,20.35275,-1.28855,0.99589
342.195,20.37104,-1.30367,0.99775
342.795,20.38943,-1.31935,0.99657
343.395,20.40778,-1.33564,0.9958
343.995,20.42617,-1.3515,0.997
344.595,20.4445,-1.37031,0.99871
345.195,20.46293,-1.3854,0.99969
345.795,20.48129,-1.40431,0.99739
346.395,20.49972,-1.4193,0.99818
346.995,20.51813,-1.43851,0.99674
347.595,20.53656,-1.4537,0.99727
348.195,20.55497,-1.47272,0.99489
348.795,20.57336,-1.48873,0.99423
349.395,20.59169,-1.50639,0.99471
349.995,20.60996,-1.52319,0.99485
350.595,20.62837,-1.54053,0.9939
351.195,20.64675,-1.55958,0.99023
351.795,20.66515,-1.57672,0.99026
352.395,20.68356,-1.59643,0.9869
352.995,20.70209,-1.61218,0.98593
353.595,20.72049,-1.63193,0.98136
354.195,20.73894,-1.64771,0.98255
354.795,20.75734,-1.66893,0.97699
355.395,20.77581,-1.68588,0.97176
355.995,20.79424,-1.70613,0.9695
356.595,20.81264,-1.7231,0.96535
357.195,20.83103,-1.74226,0.95916
357.795,20.84947,-1.76128,0.95468
358.395,20.86783,-1.78062,0.95108
358.995,20.88609,-1.80137,0.94635
359.595,20.90436,-1.81891,0.93897
360.195,20.92278,-1.83964,0.93452
360.795,20.94119,-1.85662,0.92519
361.395,20.95964,-1.87891,0.91944
361.995,20.97817,-1.89668,0.91091
362.595,20.99669,-1.91802,0.90558
363.195,21.01515,-1.93502,0.89625
363.795,21.03365,-1.95558,0.89072
364.395,21.05213,-1.97336,0.87873
364.995,21.07075,-1.99307,0.86714
365.595,21.08927,-2.01185,0.85669
366.195,21.10778,-2.03091,0.8482
366.795,21.12625,-2.05165,0.83629
367.395,21.14477,-2.06969,0.82511
367.995,21.16324,-2.0907,0.81246
368.595,21.18175,-2.1072,0.799
369.195,21.20022,-2.12796,0.78587
369.795,21.21868,-2.14421,0.77193
370.395,21.23714,-2.1648,0.75902
370.995,21.25553,-2.18065,0.74451
371.595,21.27397,-2.19941,0.72669
372.195,21.29242,-2.21521,0.713
372.795,21.31093,-2.23285,0.69703
373.395,21.3294,-2.25028,0.67762
373.995,21.34789,-2.26656,0.66341
374.595,21.36641,-2.28358,0.64323
375.195,21.38489,-2.29818,0.62879
375.795,21.40331,-2.31556,0.61344
376.395,21.42181,-2.3295,0.59308
376.995,21.44032,-2.3462,0.57693
377.595,21.45884,-2.35888,0.55635
378.195,21.47738,-2.37519,0.53702
378.795,21.49596,-2.38796,0.5217
379.395,21.5145,-2.40323,0.50461
379.995,21.53306,-2.41548,0.48512
380.595,21.55151,-2.42902,0.46857
381.195,21.57005,-2.44011,0.44904
381.795,21.58855,-2.45203,0.43062
382.395,21.60709,-2.46385,0.41347
382.995,21.62556,-2.47462,0.39173
383.595,21.64411,-2.4872,0.37665
384.195,21.66259,-2.49715,0.35807
384.795,21.68107,-2.50975,0.3421
385.395,21.6996,-2.51874,0.3229
385.995,21.71816,-2.52992,0.30488
386.595,21.73673,-2.53826,0.28908
387.195,21.75527,-2.54794,0.27562
387.795,21.77385,-2.55499,0.25841
388.395,21.79238,-2.56305,0.24396
388.995,21.81089,-2.57057,0.22681
389.595,21.82936,-2.57838,0.21246
390.195,21.84792,-2.58604,0.19749
390.795,21.86646,-2.59262,0.18203
391.395,21.885,-2.5997,0.16778
391.995,21.90357,-2.6059,0.15314
392.595,21.92212,-2.61323,0.14198
393.195,21.94066,-2.6188,0.12681
393.795,21.9592,-2.62568,0.11295
394.395,21.9778,-2.63046,0.10072
394.995,21.99638,-2.63606,0.08897474
395.595,22.015,-2.64015,0.07630402
396.195,22.03356,-2.64556,0.06347876
396.795,22.05214,-2.65075,0.05241568
397.395,22.07069,-2.65502,0.0394908
397.995,22.08928,-2.65902,0.02953343
398.595,22.10789,-2.66351,0.01630832
399.195,22.12651,-2.66667,0.007298434
399.795,22.14515,-2.67055,-0.001800745
400.395,22.16371,-2.67533,-0.01272636
400.995,22.18227,-2.67734,-0.02302536
401.595,22.20084,-2.68073,-0.03175319
402.195,22.21945,-2.68474,-0.03857295
402.795,22.23802,-2.68865,-0.05027209
403.395,22.25666,-2.69111,-0.05928846
403.995,22.27529,-2.69418,-0.06738649
404.595,22.29392,-2.69763,-0.07600141
405.195,22.31258,-2.70012,-0.08829144
405.795,22.33123,-2.70222,-0.09332989
406.395,22.34995,-2.70462,-0.10278
406.995,22.36861,-2.70787,-0.10986
407.595,22.38726,-2.71011,-0.11685
408.195,22.40587,-2.71258,-0.12461
408.795,22.42457,-2.71555,-0.133
409.395,22.44318,-2.71853,-0.1397
409.995,22.46186,-2.72078,-0.15162
410.595,22.48053,-2.72347,-0.15929
411.195,22.49927,-2.72637,-0.16819
411.795,22.51791,-2.72945,-0.17554
412.395,22.53663,-2.73334,-0.18122
412.995,22.55531,-2.73524,-0.18733
413.595,22.57398,-2.73736,-0.19714
414.195,22.59266,-2.73931,-0.20165
414.795,22.61133,-2.74184,-0.20935
415.395,22.63001,-2.74371,-0.21557
415.995,22.64869,-2.74614,-0.2235
416.595,22.66743,-2.74857,-0.22584
417.195,22.68615,-2.75117,-0.23489
417.795,22.70487,-2.75288,-0.2404
418.395,22.72362,-2.75439,-0.24454
418.995,22.74235,-2.75642,-0.25251
419.595,22.76104,-2.75917,-0.25895
420.195,22.77973,-2.76191,-0.26362
420.795,22.79843,-2.7648,-0.27027
421.395,22.81715,-2.76694,-0.2748
421.995,22.83588,-2.76918,-0.28029
422.595,22.85465,-2.77114,-0.28222
423.195,22.87341,-2.77451,-0.28995
423.795,22.89222,-2.77695,-0.29551
424.395,22.91098,-2.77864,-0.29652
424.995,22.92975,-2.78036,-0.30475
425.595,22.94851,-2.78177,-0.30593
426.195,22.96732,-2.78388,-0.30997
426.795,22.98605,-2.78686,-0.31585
427.395,23.00485,-2.78912,-0.31756
427.995,23.02369,-2.79161,-0.32274
428.595,23.04249,-2.79387,-0.3231
429.195,23.0613,-2.7958,-0.3276
429.795,23.0801,-2.79781,-0.32981
430.395,23.09893,-2.79926,-0.33295
430.995,23.1177,-2.80114,-0.3338
431.595,23.1365,-2.80305,-0.3351
432.195,23.15529,-2.80472,-0.34147
432.795,23.17414,-2.80699,-0.34179
433.395,23.19295,-2.81037,-0.34283
433.995,23.21177,-2.81265,-0.34338
434.595,23.23062,-2.81475,-0.34634
435.195,23.24947,-2.81632,-0.3487
435.795,23.26832,-2.81823,-0.34939
436.395,23.28721,-2.81889,-0.34974
436.995,23.30607,-2.82101,-0.35009
437.595,23.32499,-2.8234,-0.34887
438.195,23.34387,-2.82601,-0.35074
438.795,23.36277,-2.82706,-0.35062
439.395,23.38164,-2.82842,-0.34933
439.995,23.40051,-2.83045,-0.35026
440.595,23.41937,-2.83201,-0.35103
441.195,23.43819,-2.83426,-0.35119
441.795,23.45702,-2.83669,-0.3492
442.395,23.47593,-2.83827,-0.34875
442.995,23.49483,-2.83999,-0.3508
443.595,23.51375,-2.84115,-0.35103
444.195,23.53265,-2.84252,-0.34505
444.795,23.55158,-2.84461,-0.34597
445.395,23.5704,-2.84785,-0.34379
445.995,23.58934,-2.85066,-0.34201
446.595,23.60826,-2.85344,-0.34084
447.195,23.6272,-2.85619,-0.33539
447.795,23.64614,-2.85806,-0.33394
448.395,23.66511,-2.85953,-0.32967
448.995,23.68401,-2.86117,-0.32895
449.595,23.70293,-2.86307,-0.3277
450.195,23.72184,-2.86445,-0.3226
450.795,23.74077,-2.86576,-0.31684
451.395,23.75973,-2.86709,-0.31519
451.995,23.77859,-2.86853,-0.31376
452.595,23.79746,-2.86907,-0.30844
453.195,23.81641,-2.87086,-0.3034
453.795,23.83539,-2.87293,-0.30404
454.395,23.85436,-2.87604,-0.29803
454.995,23.87346,-2.87826,-0.29269
455.595,23.89249,-2.88024,-0.28995
456.195,23.91154,-2.88163,-0.28729
456.795,23.93049,-2.8831,-0.28179
457.395,23.9495,-2.8831,-0.27985
457.995,23.96853,-2.8838,-0.27502
458.595,23.98758,-2.88586,-0.26992
459.195,24.00662,-2.889,-0.26461
459.795,24.02563,-2.89196,-0.26116
460.395,24.04466,-2.89402,-0.25623
460.995,24.06368,-2.89588,-0.25362
461.595,24.08273,-2.89768,-0.2493
462.195,24.10172,-2.89947,-0.24563
462.795,24.12074,-2.90125,-0.24117
463.395,24.13973,-2.90244,-0.23712
463.995,24.15875,-2.90423,-0.23282
464.595,24.17772,-2.9074,-0.2308
465.195,24.19679,-2.90915,-0.22497
465.795,24.21585,-2.91066,-0.22176
466.395,24.23486,-2.91139,-0.21919
466.995,24.25387,-2.9128,-0.21488
467.595,24.27288,-2.91458,-0.2115
468.195,24.29188,-2.91553,-0.20713
468.795,24.31086,-2.91609,-0.20263
469.395,24.32995,-2.91684,-0.20198
469.995,24.34901,-2.91743,-0.19714
470.595,24.36809,-2.91889,-0.19405
471.195,24.38722,-2.91951,-0.18868
471.795,24.40633,-2.92095,-0.18528
472.395,24.42542,-2.92282,-0.18141
472.995,24.44452,-2.92457,-0.18027
473.595,24.46356,-2.92611,-0.17455
474.195,24.48262,-2.92754,-0.17192
474.795,24.50172,-2.92886,-0.17185
475.395,24.52081,-2.93073,-0.16712
475.995,24.53994,-2.9324,-0.16118
476.595,24.5591,-2.93235,-0.15907
477.195,24.57824,-2.93375,-0.15743
477.795,24.59733,-2.93433,-0.15444
478.395,24.61647,-2.93559,-0.15186
478.995,24.63557,-2.93869,-0.14765
479.595,24.65471,-2.93973,-0.14746
480.195,24.67385,-2.94043,-0.14353
480.795,24.693,-2.94183,-0.13932
481.395,24.71216,-2.94276,-0.13859
481.995,24.73131,-2.94338,-0.13799
482.595,24.75041,-2.94476,-0.13271
483.195,24.76956,-2.94612,-0.13123
483.795,24.78869,-2.94624,-0.12954
484.395,24.80789,-2.94805,-0.12933
484.995,24.82703,-2.94909,-0.12458
485.595,24.84627,-2.94936,-0.12436
486.195,24.86548,-2.95055,-0.12141
486.795,24.88472,-2.95132,-0.12137
487.395,24.90395,-2.95191,-0.12096
487.995,24.92313,-2.95303,-0.11815
488.595,24.94234,-2.95343,-0.11503
489.195,24.96153,-2.95483,-0.11418
489.795,24.98063,-2.95517,-0.11336
490.395,24.99986,-2.95661,-0.11117
490.995,25.01908,-2.95856,-0.11132
491.595,25.03827,-2.96112,-0.10795
492.195,25.05745,-2.96303,-0.10841
492.795,25.07674,-2.96455,-0.10549
493.395,25.09596,-2.96474,-0.10534
493.995,25.11521,-2.96594,-0.10286
494.595,25.13449,-2.96602,-0.10326
495.195,25.15376,-2.9675,-0.09890065
495.795,25.17303,-2.96872,-0.09663463
496.395,25.19226,-2.97042,-0.09808998
496.995,25.2115,-2.97226,-0.09564241
497.595,25.23074,-2.97375,-0.09507929
498.195,25.2499,-2.97481,-0.0951735
498.795,25.26913,-2.97634,-0.09571267
499.395,25.28838,-2.9763,-0.0927712
499.995,25.3077,-2.97765,-0.09386419
500.595,25.32698,-2.97766,-0.09169558
501.195,25.34627,-2.97766,-0.09129792
501.795,25.36555,-2.97766,-0.08963016
502.395,25.38483,-2.97766,-0.08773852
502.995,25.40401,-2.97767,-0.08563766
503.595,25.42322,-2.97859,-0.08764218
504.195,25.44247,-2.97969,-0.08505981
504.795,25.46176,-2.98114,-0.08400378
505.395,25.48102,-2.98243,-0.08525993
505.995,25.50039,-2.9828,-0.08387456
506.595,25.51975,-2.98447,-0.08289886
507.195,25.53904,-2.9862,-0.08340473
507.795,25.55832,-2.98689,-0.07954556
508.395,25.57761,-2.98788,-0.07820295
508.995,25.5969,-2.98918,-0.07924504
509.595,25.61623,-2.98938,-0.07769237
510.195,25.63551,-2.98975,-0.07769468
510.795,25.65488,-2.99077,-0.07727221
511.395,25.67417,-2.99097,-0.07703374
511.995,25.69352,-2.9922,-0.07554593
512.595,25.71279,-2.99295,-0.07590146
513.195,25.73208,-2.99376,-0.07192025
513.795,25.7514,-2.99542,-0.07265656
514.395,25.77077,-2.99583,-0.07412706
514.995,25.79014,-2.9969,-0.07409953
515.595,25.80954,-2.99839,-0.07503602
516.195,25.82886,-2.99901,-0.07236826
516.795,25.84812,-2.99971,-0.07241181
517.395,25.86742,-2.99989,-0.07258076
517.995,25.88671,-3.00129,-0.07070209
518.595,25.90604,-3.00115,-0.07319741
519.195,25.92542,-3.00252,-0.06893104
519.795,25.94481,-3.00256,-0.06923763
520.395,25.96418,-3.00281,-0.0693885
520.995,25.98353,-3.00392,-0.06703039
521.595,26.00289,-3.00387,-0.06815983
522.195,26.02224,-3.00448,-0.0698936
522.795,26.04154,-3.00552,-0.06753732
523.395,26.06089,-3.00551,-0.07006817
523.995,26.08027,-3.00553,-0.06933173
524.595,26.09958,-3.00796,-0.06536132
525.195,26.11896,-3.00823,-0.06526062
525.795,26.13831,-3.00946,-0.06418074
526.395,26.15765,-3.01095,-0.06456744
526.995,26.17704,-3.01131,-0.06572093
527.595,26.19646,-3.01239,-0.06306521
528.195,26.21586,-3.01366,-0.06335418
528.795,26.23524,-3.0149,-0.06011033
529.395,26.25462,-3.01652,-0.06279195
529.995,26.27405,-3.01665,-0.06164841
530.595,26.29347,-3.01801,-0.05850059
531.195,26.31268,-3.01792,-0.06107298
531.795,26.33217,-3.01792,-0.06023318
532.395,26.35156,-3.018,-0.05926824
532.995,26.37095,-3.01951,-0.06053537
533.595,26.39046,-3.01992,-0.05936401
534.195,26.41007,-3.02095,-0.05785065
534.795,26.42952,-3.022,-0.05743964
535.395,26.44889,-3.02241,-0.05510423
535.995,26.46833,-3.02299,-0.05514804
536.595,26.48776,-3.02393,-0.055784
537.195,26.50716,-3.02567,-0.05487066
537.795,26.52655,-3.02734,-0.05579401
538.395,26.54598,-3.0281,-0.05363944
538.995,26.56537,-3.0294,-0.05670829
539.595,26.58476,-3.02983,-0.05515823
540.195,26.60422,-3.03066,-0.0516696
540.795,26.6237,-3.03215,-0.0539453
541.395,26.64321,-3.03232,-0.05337281
541.995,26.6627,-3.0337,-0.0520464
542.595,26.68219,-3.03362,-0.0556392
543.195,26.70165,-3.0337,-0.05244748
543.795,26.72105,-3.03495,-0.05109097
544.395,26.74045,-3.03489,-0.05096979
544.995,26.75992,-3.03596,-0.05128237
545.595,26.77938,-3.03623,-0.05414369
546.195,26.79886,-3.03719,-0.05136914
546.795,26.81831,-3.03765,-0.04942154
547.395,26.83774,-3.03887,-0.04930872
547.995,26.85712,-3.03896,-0.04895772
548.595,26.87652,-3.03912,-0.04907902
549.195,26.89594,-3.04035,-0.04608742
549.795,26.9154,-3.04029,-0.04686308
550.395,26.93486,-3.04024,-0.0485561
550.995,26.95439,-3.04135,-0.04827733
551.595,26.97391,-3.0416,-0.04736521
552.195,26.99343,-3.04181,-0.04521006
552.795,27.0129,-3.04297,-0.04704717
553.395,27.03236,-3.04293,-0.04717254
553.995,27.05186,-3.04303,-0.04688007
554.595,27.07129,-3.0444,-0.0476607
555.195,27.09073,-3.04446,-0.04632176
555.795,27.11026,-3.04567,-0.04509654
556.395,27.12976,-3.04568,-0.04602984
556.995,27.14916,-3.04698,-0.04345644
557.595,27.16868,-3.04759,-0.04673701
558.195,27.18813,-3.04836,-0.0433268
558.795,27.20758,-3.04992,-0.04314824
559.395,27.22703,-3.05127,-0.04171504
559.995,27.24653,-3.05158,-0.0424629
560.595,27.26599,-3.05299,-0.04068139
561.195,27.28551,-3.05546,-0.04295286
561.795,27.30505,-3.05619,-0.04036417
562.395,27.32461,-3.05751,-0.04322298
562.995,27.34415,-3.05861,-0.04030045
563.595,27.36373,-3.05891,-0.04038808
564.195,27.38326,-3.05893,-0.03867403
564.795,27.40275,-3.05893,-0.03853538
565.395,27.42225,-3.05894,-0.04019735
565.995,27.44176,-3.05846,-0.03812222
566.595,27.46121,-3.05899,-0.04025686
567.195,27.48073,-3.05893,-0.03812426
567.795,27.50025,-3.05893,-0.03595071
568.395,27.51977,-3.05893,-0.03600341
568.995,27.53934,-3.05893,-0.03352164
569.595,27.5589,-3.0599,-0.0313718
570.195,27.57845,-3.06022,-0.03327134
570.795,27.59803,-3.06156,-0.03096335
571.395,27.61754,-3.06208,-0.02883875
571.995,27.63708,-3.0629,-0.02839803
572.595,27.65658,-3.06288,-0.02633366
573.195,27.67608,-3.06402,-0.02429185
573.795,27.6956,-3.06439,-0.0207782
574.395,27.71514,-3.06485,-0.02174156
574.995,27.7347,-3.06542,-0.01660521
575.595,27.75432,-3.06581,-0.01351758
576.195,27.77393,-3.06578,-0.01104255
576.795,27.79353,-3.06671,-0.007984319
577.395,27.81316,-3.06682,-0.008494794
577.995,27.83269,-3.06678,-0.003535018
578.595,27.85221,-3.06755,-0.003003847
579.195,27.87175,-3.06752,0.000970069
579.795,27.89132,-3.0685,-0.001562341
580.395,27.91094,-3.06929,0.004070456
580.995,27.93057,-3.06988,0.007404333
581.595,27.9502,-3.07064,0.00570102
582.195,27.96979,-3.07131,0.01159594
582.795,27.98934,-3.07166,0.01164553
583.395,28.00894,-3.07264,0.01282545
583.995,28.0285,-3.07265,0.01652915
584.595,28.04807,-3.07321,0.02036637
585.195,28.06768,-3.07396,0.01794699
585.795,28.08724,-3.07522,0.02278742
586.395,28.10685,-3.07553,0.02458744
586.995,28.12648,-3.07686,0.0253349
587.595,28.14603,-3.07676,0.02770197
588.195,28.16563,-3.07773,0.0295455
588.795,28.18525,-3.07783,0.02861815
589.395,28.20486,-3.07762,0.03179623
589.995,28.22454,-3.0778,0.03116101
590.595,28.24434,-3.07827,0.03533364
591.195,28.26405,-3.07913,0.03628719
591.795,28.28377,-3.07935,0.03926013
592.395,28.30341,-3.08047,0.03803839
592.995,28.32303,-3.08037,0.04140576
593.595,28.34265,-3.08192,0.04183005
594.195,28.36233,-3.08306,0.04202999
594.795,28.382,-3.08367,0.03976768
595.395,28.40165,-3.08436,0.04413755
595.995,28.42133,-3.08438,0.04280668
596.595,28.44099,-3.08438,0.04542395
597.195,28.46069,-3.08439,0.04624478
597.795,28.48029,-3.08445,0.04426576
598.395,28.49998,-3.08581,0.04774767
598.995,28.51966,-3.08582,0.04506132
599.595,28.53937,-3.08713,0.04740869
600.195,28.55912,-3.08712,0.04818187
600.795,28.57889,-3.08854,0.04994055
601.395,28.59847,-3.08967,0.04771727
601.995,28.61812,-3.09095,0.0495277
602.595,28.63777,-3.09249,0.04788834
603.195,28.65741,-3.09422,0.05029789
603.795,28.67713,-3.09493,0.04796599
604.395,28.69689,-3.09557,0.04723723
604.995,28.71666,-3.09444,0.04707655
605.595,28.73641,-3.09423,0.04427534
606.195,28.75622,-3.09355,0.04509188
606.795,28.776,-3.09293,0.04445014
607.395,28.79577,-3.09293,0.04246103
607.995,28.81546,-3.09293,0.0456541
608.595,28.83515,-3.09293,0.04559503
609.195,28.85484,-3.09293,0.04601096
609.795,28.87451,-3.09288,0.04818224
610.395,28.89419,-3.09404,0.0464332
610.995,28.91394,-3.09444,0.04763964
611.595,28.93369,-3.09731,0.04773819
612.195,28.95345,-3.09731,0.04778458
612.795,28.97322,-3.09872,0.04747376
613.395,28.99292,-3.09866,0.04697769
613.995,29.01269,-3.09894,0.04768963
614.595,29.03249,-3.09996,0.04977327
615.195,29.05227,-3.09995,0.04817948
615.795,29.07204,-3.09994,0.0497169
616.395,29.09184,-3.09983,0.04780918
616.995,29.1116,-3.09859,0.0507973
617.595,29.13132,-3.09864,0.04897414
618.195,29.15111,-3.09864,0.04804923
618.795,29.17087,-3.09864,0.05089946
619.395,29.1906,-3.09864,0.04963078
619.995,29.21043,-3.09864,0.0510938
620.595,29.23021,-3.09863,0.05225511
621.195,29.24997,-3.09936,0.05586531
621.795,29.26977,-3.10005,0.05335539
622.395,29.28959,-3.10163,0.05465148
622.995,29.30931,-3.10195,0.05520499
623.595,29.32903,-3.10324,0.05646358
624.195,29.34878,-3.10486,0.05719835
624.795,29.3685,-3.10516,0.05389698
625.395,29.38829,-3.10621,0.05693245
625.995,29.40808,-3.10617,0.05754123
626.595,29.42784,-3.10747,0.05902225
627.195,29.44763,-3.10752,0.06376881
627.795,29.46742,-3.10752,0.06420075
628.395,29.48718,-3.10878,0.06112257
628.995,29.50696,-3.10891,0.0637265
629.595,29.52681,-3.10932,0.06321197
630.195,29.54658,-3.10892,0.06428306
630.795,29.56639,-3.10893,0.06734719
631.395,29.5862,-3.11001,0.06647848
631.995,29.60603,-3.11014,0.06726989
632.595,29.62586,-3.11175,0.06897522
633.195,29.64572,-3.11217,0.07099915
633.795,29.6655,-3.11315,0.07352806
634.395,29.6854,-3.11311,0.07184558
634.995,29.70521,-3.11311,0.07399233
635.595,29.725,-3.11311,0.07429738
636.195,29.74477,-3.11311,0.07600797
636.795,29.7646,-3.1131,0.07642869
637.395,29.78439,-3.11302,0.07489661
637.995,29.80417,-3.11436,0.0757419
638.595,29.82406,-3.11443,0.07902732
639.195,29.8439,-3.11443,0.07682837
639.795,29.86373,-3.11533,0.08020712
640.395,29.88357,-3.11588,0.0798368
640.995,29.90343,-3.11696,0.08276594
641.595,29.92328,-3.11727,0.08036978
642.195,29.94317,-3.11728,0.08266101
642.795,29.963,-3.11729,0.08611769
643.395,29.98282,-3.11745,0.08518421
643.995,30.00263,-3.11865,0.08643428
644.595,30.02244,-3.1186,0.08729975
645.195,30.04225,-3.1186,0.0894982
645.795,30.06214,-3.1186,0.09068383
646.395,30.08205,-3.1186,0.09316266
646.995,30.10186,-3.11855,0.09370272
647.595,30.12173,-3.11976,0.09382529
648.195,30.14164,-3.1199,0.09514519
648.795,30.16151,-3.12079,0.09783337
649.395,30.18134,-3.12038,0.09773218
649.995,30.20124,-3.11992,0.09951275
650.595,30.22106,-3.11991,0.09738786
651.195,30.24091,-3.11991,0.10193
651.795,30.26084,-3.11998,0.09683289
652.395,30.28075,-3.12127,0.09891747
652.995,30.30058,-3.12133,0.10337
653.595,30.32048,-3.12255,0.10474
654.195,30.34035,-3.12255,0.10504
654.795,30.36023,-3.12255,0.1053
655.395,30.38011,-3.12255,0.10568
655.995,30.40003,-3.12255,0.1098
656.595,30.41991,-3.12295,0.10565
657.195,30.43981,-3.12385,0.1098
657.795,30.45968,-3.12388,0.10845
658.395,30.47959,-3.12519,0.11207
658.995,30.49949,-3.12518,0.11245
659.595,30.51934,-3.12618,0.11426
660.195,30.5392,-3.1265,0.11411
660.795,30.55909,-3.1265,0.116
661.395,30.57892,-3.1265,0.11555
661.995,30.59884,-3.12712,0.11539
662.595,30.61871,-3.12781,0.1145
663.195,30.6386,-3.12781,0.11629
663.795,30.65849,-3.12781,0.11724
664.395,30.67841,-3.12777,0.1175
664.995,30.69829,-3.12922,0.11554
665.595,30.71816,-3.12948,0.11917
666.195,30.73805,-3.13057,0.11869
666.795,30.75797,-3.13055,0.11762
667.395,30.77784,-3.13056,0.12091
667.995,30.79782,-3.13088,0.11843
668.595,30.81776,-3.13054,0.11597
669.195,30.83765,-3.13055,0.1212
669.795,30.85752,-3.13051,0.11736
670.395,30.87743,-3.1318,0.11845
670.995,30.89728,-3.13187,0.12166
671.595,30.91711,-3.13205,0.12125
672.195,30.937,-3.13337,0.12215
672.795,30.95688,-3.13405,0.12081
673.395,30.97679,-3.13475,0.12153
673.995,30.99672,-3.13547,0.11868
674.595,31.01672,-3.13605,0.11657
675.195,31.03667,-3.1362,0.11966
675.795,31.05661,-3.13741,0.11708
676.395,31.07654,-3.13736,0.11705
676.995,31.09634,-3.13736,0.11677
677.595,31.11619,-3.13736,0.11722
678.195,31.13609,-3.13736,0.11268
678.795,31.15598,-3.13741,0.11609
679.395,31.17596,-3.13611,0.11166
679.995,31.19603,-3.13595,0.11496
680.595,31.21604,-3.13616,0.11133
681.195,31.23603,-3.13615,0.11347
681.795,31.25599,-3.13771,0.11169
682.395,31.27591,-3.13914,0.1137
682.995,31.29584,-3.14003,0.11219
683.595,31.31575,-3.14088,0.11058
684.195,31.33566,-3.14082,0.11152
684.795,31.35565,-3.14199,0.11035
685.395,31.37562,-3.14277,0.11177
685.995,31.39555,-3.14345,0.11081
686.595,31.41549,-3.14416,0.11008
687.195,31.43545,-3.14416,0.10979
687.795,31.45542,-3.14416,0.10862
688.395,31.47535,-3.14416,0.10741
688.995,31.49527,-3.14416,0.10835
689.595,31.5152,-3.14416,0.10583
690.195,31.53515,-3.1442,0.10642
690.795,31.55506,-3.1438,0.1037
691.395,31.57509,-3.14382,0.10444
691.995,31.59509,-3.14479,0.10123
692.595,31.6151,-3.14513,0.10239
693.195,31.63508,-3.14515,0.09930571
693.795,31.65507,-3.14515,0.1017
694.395,31.67504,-3.14515,0.0985526
694.995,31.69501,-3.14514,0.09965404
695.595,31.71498,-3.14505,0.09721481
696.195,31.73497,-3.14639,0.09867428
696.795,31.75491,-3.14607,0.09494633
697.395,31.77487,-3.14581,0.09367491
697.995,31.79481,-3.14571,0.09384079
698.595,31.81474,-3.14713,0.09527937
699.195,31.83474,-3.1473,0.0918667
699.795,31.85474,-3.14876,0.09192116
700.395,31.87475,-3.14895,0.09129581
700.995,31.89477,-3.15016,0.08665927
701.595,31.91476,-3.15061,0.08619456
702.195,31.93478,-3.15141,0.0904933
702.795,31.95476,-3.1514,0.08444689
703.395,31.97477,-3.1514,0.08426738
703.995,31.9948,-3.1514,0.08672738
704.595,32.01482,-3.1514,0.08302253
705.195,32.03483,-3.15145,0.08299758
705.795,32.05487,-3.1503,0.08154784
706.395,32.07484,-3.15009,0.08117073
706.995,32.09483,-3.15008,0.07950033
707.595,32.11484,-3.15008,0.08373431
708.195,32.13486,-3.15008,0.0787453
708.795,32.15486,-3.15007,0.07812789
709.395,32.17488,-3.14989,0.07707823
709.995,32.19484,-3.14975,0.07692143
710.595,32.21485,-3.1497,0.07720199
711.195,32.23483,-3.15083,0.07704947
711.795,32.25483,-3.15068,0.0755115
712.395,32.27486,-3.15043,0.07181099
712.995,32.29483,-3.15041,0.07310933
713.595,32.31483,-3.15042,0.07270614
714.195,32.33487,-3.15072,0.07041589
714.795,32.35491,-3.15179,0.06869151
715.395,32.37492,-3.15117,0.06655933
715.995,32.39499,-3.15102,0.06713721
716.595,32.41501,-3.15218,0.06581245
717.195,32.43509,-3.15141,0.06709587
717.795,32.45512,-3.15109,0.06418393
718.395,32.47515,-3.15106,0.06341387
718.995,32.49519,-3.15204,0.06425621
719.595,32.51519,-3.15236,0.06159942
720.195,32.5352,-3.15235,0.05953205
720.795,32.55525,-3.15174,0.06053367
721.395,32.57531,-3.15084,0.05806698
721.995,32.59537,-3.15085,0.05896478
722.595,32.61543,-3.15085,0.05842662
723.195,32.63544,-3.15085,0.05521847
723.795,32.65552,-3.1508,0.05863996
724.395,32.67556,-3.152,0.05384112
724.995,32.69565,-3.15233,0.05380483
725.595,32.71576,-3.15238,0.05835056
726.195,32.73585,-3.15402,0.05454911
726.795,32.75593,-3.1558,0.05338101
727.395,32.77597,-3.1573,0.05238351
727.995,32.79605,-3.15763,0.05563144
728.595,32.81611,-3.15766,0.05138489
729.195,32.83617,-3.15774,0.05272547
729.795,32.85624,-3.15635,0.04923459
730.395,32.87635,-3.15633,0.04978108
730.995,32.89649,-3.15633,0.05011194
731.595,32.9166,-3.15633,0.04729984
732.195,32.93669,-3.15633,0.04383234
732.795,32.95675,-3.15633,0.04528885
733.395,32.97684,-3.15633,0.04561272
733.995,32.99698,-3.15633,0.04418951
734.595,33.01715,-3.15633,0.04395615
735.195,33.03737,-3.15633,0.04019735
735.795,33.05752,-3.15634,0.04347936
736.395,33.07762,-3.15664,0.03937987
736.995,33.09768,-3.15642,0.03923591
737.595,33.11775,-3.15645,0.03852135
738.195,33.13786,-3.1573,0.03961905
738.795,33.15794,-3.15775,0.03631973
739.395,33.17803,-3.15775,0.03870442
739.995,33.19804,-3.15776,0.03375385
740.595,33.218,-3.15863,0.0363012
741.195,33.23809,-3.15907,0.03407682
741.795,33.2583,-3.15877,0.03486936
742.395,33.27857,-3.15875,0.03550447
742.995,33.29886,-3.15875,0.034266
743.595,33.31914,-3.15875,0.03084069
744.195,33.33927,-3.15875,0.03285883
744.795,33.35941,-3.15875,0.03139261
745.395,33.37954,-3.15875,0.02952928
745.995,33.3997,-3.15945,0.02640505
746.595,33.41985,-3.16006,0.02618195
747.195,33.43997,-3.16006,0.02230141
747.795,33.4601,-3.16006,0.02155981
748.395,33.48018,-3.16006,0.02279977
748.995,33.50025,-3.16006,0.01816354
749.595,33.52031,-3.16007,0.02258579
750.195,33.54039,-3.15934,0.0218419
750.795,33.56053,-3.15908,0.01726896
751.395,33.58065,-3.15908,0.01806797
751.995,33.60083,-3.15908,0.01650618
752.595,33.62107,-3.15906,0.01645398
753.195,33.64122,-3.15992,0.01091059
753.795,33.66136,-3.16049,0.0109661
754.395,33.68152,-3.16214,0.01323006
754.995,33.70167,-3.16267,0.01155797
755.595,33.72181,-3.16354,0.01147061
756.195,33.742,-3.16357,0.01356962
756.795,33.76218,-3.16357,0.008855408
757.395,33.78234,-3.16357,0.009799114
757.995,33.8025,-3.16357,0.007313925
758.595,33.82263,-3.16357,0.0061205
759.195,33.84277,-3.16359,0.002721026
759.795,33.86295,-3.1639,0.003103025
760.395,33.88306,-3.16489,0.004909205
760.995,33.90321,-3.16481,0.00891609
761.595,33.92336,-3.16612,0.004780148
762.195,33.94357,-3.16617,0.004944802
762.795,33.96374,-3.16724,-0.000968464
763.395,33.98394,-3.16683,0.001532733
763.995,34.00416,-3.16661,0.001758264
764.595,34.02431,-3.16797,0.000923443
765.195,34.04447,-3.16835,0.000958363
765.795,34.06463,-3.16917,-0.003352132
766.395,34.08483,-3.16916,-0.001963334
766.995,34.10496,-3.16915,-0.002802343
767.595,34.12507,-3.16896,-0.00440385
768.195,34.14528,-3.16884,-0.005378972
768.795,34.16543,-3.16883,-0.002384261
769.395,34.18556,-3.16886,-0.008038209
769.995,34.20577,-3.16946,-0.007759426
770.595,34.22596,-3.17027,-0.008152738
771.195,34.24613,-3.17028,-0.004168926
771.795,34.26628,-3.17094,-0.010373
772.395,34.28646,-3.17086,-0.01317515
772.995,34.30662,-3.17026,-0.01183329
773.595,34.32677,-3.17026,-0.01257592
774.195,34.34696,-3.17022,-0.01599894
774.795,34.36714,-3.17149,-0.01492875
775.395,34.38733,-3.17158,-0.01506084
775.995,34.40746,-3.17209,-0.01581107
776.595,34.42761,-3.17291,-0.01968383
777.195,34.44773,-3.17291,-0.02044175
777.795,34.46787,-3.17376,-0.01663699
778.395,34.48809,-3.1742,-0.01899944
778.995,34.50823,-3.1742,-0.01947444
779.595,34.52842,-3.1742,-0.02095396
780.195,34.54862,-3.1742,-0.0216047
780.795,34.56877,-3.1742,-0.01942696
781.395,34.58895,-3.1742,-0.02524704
781.995,34.60906,-3.1742,-0.02346188
782.595,34.62918,-3.17486,-0.02076246
783.195,34.64927,-3.17552,-0.02528349
783.795,34.66939,-3.17552,-0.02629816
784.395,34.68955,-3.17552,-0.02596442
784.995,34.70982,-3.17552,-0.02411452
785.595,34.72999,-3.17552,-0.02560631
786.195,34.75018,-3.17551,-0.0270074
786.795,34.77034,-3.17543,-0.02932299
787.395,34.79049,-3.17456,-0.02988163
787.995,34.81068,-3.17451,-0.02720444
788.595,34.83085,-3.17565,-0.03074599
789.195,34.85104,-3.17586,-0.03263749
789.795,34.87122,-3.17586,-0.03291902
790.395,34.89138,-3.17584,-0.03409352
790.995,34.91152,-3.17445,-0.03711802
791.595,34.93167,-3.17453,-0.03875211
792.195,34.95177,-3.17448,-0.03881481
792.795,34.97189,-3.17386,-0.03546578
793.395,34.99195,-3.17388,-0.0375444
793.595,34.99889,-3.17388,-0.04021999