File: 01_Data/Cellulose_Insulation/Cone/Cellulose_Insulation_Cone_HF75Scan_230615_R1.csv
Names,Time,Stack TC,Smoke TC,Exh Press,Smoke Comp,Smoke Meas,CO Meter,CO2 Meter,O2 Meter,Sample Mass,Ext Coeff,Start Test,Flame Verif
Chan Gain,,500,500,1,1,1,1,1,1,1,1,1.0,1.0
Offset,,0,0,0.245636,0,0,0,0,0,0,0,0.0,0.0
Gain,,1,1,25.011,13.7634,14.9464,1,1,1,1.00094,1.03834,1.0,1.0
Units,sec,C,C,Pa,%,%,%,%,%,g,/m,,
Baseline,,42.0657,45.02,139.45,100.097,100.079,8.43407e-05,0.0474695,20.9637,-445.443,0.00167523,,
4,0.75,41.0986,42.5618,118.966,100.019,101.993,0.000252932,0.0566901,20.9532,78.9945,-0.177994,1.0,0.0
8,1.75,39.4882,41.9244,116.176,100.035,100.737,0.000223632,0.0567691,20.952,78.6542,-0.0636679,0.0,1.0
12,2.75,40.0588,45.0233,117.312,100.02,100.418,0.000202829,0.0568479,20.9512,78.3839,-0.0361295,0.0,1.0
16,3.75,41.8564,48.8029,115.033,100.012,99.8356,0.000191407,0.0569887,20.9507,78.1537,0.0160501,0.0,1.0
20,4.75,43.5476,52.3856,118.295,100.022,99.3206,0.000183913,0.0572122,20.9503,77.8934,0.064109,0.0,1.0
24,5.75,45.0778,55.2756,120.927,100.031,99.2472,0.000192527,0.0572268,20.9501,77.6632,0.0716122,0.0,1.0
28,6.75,45.6995,57.4124,119.936,100.025,99.7644,0.000233754,0.0586732,20.9497,77.5031,0.0237294,0.0,1.0
32,7.75,46.1182,59.1552,118.885,100.012,99.7726,0.000303434,0.0741251,20.9489,77.2328,0.0217939,0.0,0.0
36,8.75,47.3558,60.7929,123.89,100.024,99.2508,0.000404499,0.118589,20.9484,76.9125,0.0707029,0.0,0.0
40,9.75,48.8858,62.3514,119.907,100.01,98.8704,0.000629403,0.201449,20.9474,76.8124,0.104342,0.0,0.0
44,10.75,49.585,63.8219,122.644,100.015,99.2431,0.000971815,0.289911,20.939,76.5422,0.0705348,0.0,0.0
48,11.75,50.1242,65.0216,118.799,100.015,99.0926,0.0013784,0.379984,20.8907,76.4721,0.0844369,0.0,0.0
52,12.75,50.9681,66.012,126.522,100.01,99.5801,0.00178708,0.453908,20.8118,76.1918,0.0392686,0.0,0.0
56,13.75,51.8777,67.2644,126.185,100.005,100.164,0.0022551,0.507395,20.7307,76.1018,-0.0144334,0.0,0.0
60,14.75,52.398,67.0597,120.894,100.011,100.583,0.00265991,0.539134,20.6304,75.9416,-0.0519361,0.0,0.0
64,15.75,52.901,68.3224,125.212,100.003,100.176,0.00300936,0.55416,20.5375,75.7414,-0.0157478,0.0,0.0
68,16.75,53.3261,68.56,128.281,100.013,101.039,0.00327409,0.556764,20.467,75.6313,-0.0929587,0.0,0.0
72,17.75,53.9206,68.467,122.275,100.007,101.243,0.00345186,0.552925,20.4207,75.4612,-0.111852,0.0,0.0
76,18.75,54.3012,69.3346,123.699,100.008,100.622,0.00355884,0.543711,20.3904,75.311,-0.0557546,0.0,0.0
80,19.75,54.9502,69.834,121.532,99.9961,100.904,0.00357284,0.536716,20.3747,75.1208,-0.0823477,0.0,0.0
84,20.75,55.0829,69.789,125.715,100.008,100.866,0.00356343,0.523996,20.367,74.9807,-0.0778583,0.0,0.0
88,21.75,55.0468,70.1868,122.859,100.01,101.573,0.00347124,0.50872,20.3709,74.8506,-0.141286,0.0,0.0
92,22.75,56.5951,70.0618,125.521,99.9986,100.974,0.00336552,0.492384,20.3797,74.7305,-0.0883752,0.0,0.0
96,23.75,56.3463,71.7687,125.134,100.008,101.056,0.00325699,0.477377,20.3928,74.5703,-0.0948977,0.0,0.0
100,24.75,54.9229,70.9297,126.181,100.009,100.872,0.00313786,0.46152,20.4097,74.4702,-0.0782383,0.0,0.0
104,25.75,56.7353,70.064,126.388,100.01,101.401,0.00303095,0.446507,20.431,74.3201,-0.125815,0.0,0.0
108,26.75,57.1946,71.0644,123.222,100.007,101.387,0.00293975,0.433845,20.4507,74.2,-0.124772,0.0,0.0
112,27.75,55.7917,70.9113,124.224,100.012,101.508,0.00286552,0.422486,20.4699,74.0899,-0.135206,0.0,0.0
116,28.75,57.1861,70.8429,127.897,100.015,101.267,0.00279201,0.412079,20.487,73.9798,-0.113302,0.0,0.0
120,29.75,57.5971,71.473,130.501,100.018,100.861,0.00271221,0.401433,20.502,73.8496,-0.0764873,0.0,0.0
124,30.75,57.6069,70.4338,127.523,99.9953,101.284,0.00262081,0.390688,20.5171,73.7696,-0.116616,0.0,0.0
128,31.75,56.7601,70.7796,131.325,100.026,101.361,0.0025351,0.383267,20.5282,73.6294,-0.120791,0.0,0.0
132,32.75,58.0082,70.4448,127.611,100.006,101.151,0.00242568,0.373615,20.5442,73.4793,-0.103678,0.0,0.0
136,33.75,57.5674,70.6473,124.829,100.019,100.81,0.00233335,0.365343,20.5569,73.4192,-0.0717961,0.0,0.0
140,34.75,58.3243,70.7596,129.65,100.002,100.919,0.00224247,0.358075,20.57,73.2791,-0.0831678,0.0,0.0
144,35.75,58.6606,69.6643,128.025,100.002,101.128,0.00216486,0.351466,20.581,73.209,-0.101968,0.0,0.0
148,36.75,58.36,70.9854,127.57,99.9869,100.866,0.0021117,0.344631,20.5909,73.0489,-0.0796895,0.0,0.0
152,37.75,58.6558,70.5774,127.043,100.005,101.042,0.00206796,0.338118,20.6004,72.9388,-0.0939679,0.0,0.0
156,38.75,59.0078,71.2425,129.302,100.006,101.447,0.00202116,0.332102,20.6098,72.8387,-0.130333,0.0,0.0
160,39.75,58.4683,70.6125,128.86,100,101.403,0.00196799,0.327031,20.6185,72.6985,-0.126898,0.0,0.0
164,40.75,58.9687,70.5168,126.422,100.006,101.2,0.00191809,0.321363,20.6248,72.5384,-0.108071,0.0,0.0
168,41.75,58.4797,69.4148,132.774,100.009,100.747,0.00184025,0.316022,20.6321,72.5584,-0.0669876,0.0,0.0
172,42.75,59.0325,70.6745,133.782,100.011,101.089,0.00176588,0.311398,20.6392,72.4683,-0.09759,0.0,0.0
176,43.75,58.8689,70.4747,125.498,100.021,101.159,0.00171073,0.30781,20.6444,72.2882,-0.103037,0.0,0.0
180,44.75,59.0415,70.4424,127.142,100.01,101.493,0.00167455,0.303832,20.6502,72.168,-0.134082,0.0,0.0
184,45.75,58.9432,70.4859,129.994,100.009,101.239,0.00165146,0.30032,20.6569,72.088,-0.111371,0.0,0.0
188,46.75,59.452,69.3102,127.397,100.016,100.935,0.0016392,0.297025,20.6614,72.0079,-0.0833108,0.0,0.0
192,47.75,58.9989,69.5418,128.386,100.01,101.249,0.00163434,0.294084,20.6675,71.9078,-0.112121,0.0,0.0
196,48.75,59.2123,69.7161,130.314,100.019,101.014,0.00163469,0.291383,20.6715,71.8477,-0.0901202,0.0,0.0
200,49.75,59.7705,69.5103,126.745,100.012,101.294,0.00164648,0.288744,20.675,71.7076,-0.11595,0.0,0.0
204,50.75,59.8141,69.4831,128.682,100.023,101.005,0.00167475,0.286268,20.6789,71.6375,-0.0889919,0.0,0.0
208,51.75,59.3106,68.45,127.841,100.021,101.588,0.00169681,0.283929,20.6835,71.5675,-0.141642,0.0,0.0
212,52.75,59.0022,69.4394,126.724,100.012,101.729,0.00170284,0.281503,20.6878,71.4874,-0.155112,0.0,0.0
216,53.75,59.5717,69.2051,128.955,100.021,100.859,0.00168838,0.278815,20.6914,71.3773,-0.0759765,0.0,0.0
220,54.75,59.4658,68.3163,130.812,100.028,100.932,0.00166298,0.276072,20.6944,71.1871,-0.0819105,0.0,0.0
224,55.75,59.5203,69.2642,128.262,100.031,100.946,0.00163201,0.273487,20.6971,71.1871,-0.0828807,0.0,0.0
228,56.75,59.9399,69.1088,129.932,100.031,101.013,0.00161841,0.27088,20.7001,71.027,-0.0889283,0.0,0.0
232,57.75,59.442,68.9394,135.367,100.036,100.697,0.00164089,0.268414,20.7031,71.027,-0.0599615,0.0,0.0
236,58.75,59.8216,69.0733,128.868,100.029,100.969,0.00169604,0.265587,20.7065,70.8868,-0.0851711,0.0,0.0
240,59.75,60.1954,68.5634,127.643,100.048,100.943,0.00175468,0.262724,20.7097,70.7467,-0.0811009,0.0,0.0
244,60.75,59.2616,68.5233,128.594,100.055,100.958,0.0017909,0.260266,20.7132,70.6867,-0.0818092,0.0,0.0
248,61.75,59.8003,68.311,131.326,100.035,101.069,0.00180723,0.258404,20.7163,70.6066,-0.0937216,0.0,0.0
252,62.75,59.2643,68.745,130.438,100.039,101.053,0.00180819,0.256744,20.7197,70.5565,-0.0918612,0.0,0.0
256,63.75,59.8319,68.7837,130.989,100.053,101.152,0.00180515,0.255053,20.7225,70.4664,-0.0995558,0.0,0.0
260,64.75,59.4786,67.6103,130.568,100.046,101.313,0.00180679,0.253078,20.7246,70.3263,-0.114652,0.0,0.0
264,65.75,59.4929,68.3055,126.786,100.044,101.286,0.00182844,0.250598,20.7265,70.3663,-0.112382,0.0,0.0
268,66.75,59.1171,68.1269,128.855,100.048,101.1,0.00186176,0.247995,20.7284,70.2663,-0.0952888,0.0,0.0
272,67.75,59.8548,67.5055,129.967,100.045,101.116,0.00189778,0.244559,20.7307,70.1461,-0.0969957,0.0,0.0
276,68.75,59.9614,67.7206,127.927,100.051,100.907,0.00192327,0.241118,20.7329,70.0561,-0.0775817,0.0,0.0
280,69.75,59.6647,68.5649,129.448,100.052,101.083,0.00193652,0.238701,20.7351,69.986,-0.0933069,0.0,0.0
284,70.75,58.724,67.4815,130.541,100.06,101.087,0.00195101,0.236689,20.7382,69.8859,-0.0930267,0.0,0.0
288,71.75,59.9755,67.7898,129.368,100.06,101.251,0.00196689,0.234661,20.7426,69.7758,-0.107852,0.0,0.0
292,72.75,59.7761,67.4593,128.746,100.064,100.889,0.00197956,0.232944,20.7462,69.7458,-0.0747908,0.0,0.0
296,73.75,59.4121,67.3956,131.563,100.063,100.937,0.00197214,0.231749,20.7493,69.6056,-0.0792305,0.0,0.0
300,74.75,59.4317,67.4062,128.987,100.067,100.937,0.00194072,0.23079,20.7521,69.6156,-0.0788872,0.0,0.0
304,75.75,59.2098,67.3733,133.406,100.072,100.969,0.00189932,0.229834,20.7541,69.4755,-0.0812707,0.0,0.0
308,76.75,59.5734,67.2609,129.395,100.078,101.266,0.00186483,0.228776,20.7557,69.4355,-0.107441,0.0,0.0
312,77.75,59.5101,67.8303,129.954,100.096,101.535,0.0018537,0.227743,20.7573,69.3754,-0.130049,0.0,0.0
316,78.75,59.1853,67.0628,129.89,100.086,101.354,0.0018671,0.226426,20.7583,69.2953,-0.114709,0.0,0.0
320,79.75,59.7466,67.3715,131.864,100.103,100.831,0.00190285,0.224634,20.7597,69.2053,-0.0660076,0.0,0.0
324,80.75,60.0558,66.58,131.069,100.111,101.058,0.00192855,0.222677,20.7607,69.1052,-0.0857328,0.0,0.0
328,81.75,59.1983,66.9975,127.11,100.089,101.131,0.00193643,0.220933,20.762,69.0651,-0.0942986,0.0,0.0
332,82.75,59.481,66.8771,128.913,100.105,101.068,0.00195029,0.219322,20.7635,69.0051,-0.0872164,0.0,0.0
336,83.75,58.8462,67.2053,130.394,100.113,101.016,0.0019813,0.217632,20.7656,68.895,-0.0818026,0.0,0.0
340,84.75,59.0799,67.0779,127.481,100.122,101.083,0.00201959,0.216195,20.7675,68.8549,-0.0869999,0.0,0.0
344,85.75,59.1923,66.5923,132.237,100.12,101.216,0.00206298,0.214985,20.7687,68.7148,-0.0992254,0.0,0.0
348,86.75,59.0301,66.9753,128.66,100.125,101.151,0.00210102,0.213547,20.7711,68.6647,-0.0928161,0.0,0.0
352,87.75,59.5747,67.0954,129.863,100.125,100.886,0.00213498,0.212148,20.7727,68.6247,-0.0690042,0.0,0.0
356,88.75,59.282,66.3669,130.173,100.135,101.562,0.00215051,0.211128,20.7744,68.5747,-0.128913,0.0,0.0
360,89.75,58.2939,66.3363,133.909,100.133,100.931,0.00213834,0.210802,20.7756,68.4746,-0.0722716,0.0,0.0
364,90.75,58.5091,66.6727,130.159,100.125,100.9,0.00211224,0.210837,20.7771,68.4545,-0.0701979,0.0,0.0
368,91.75,59.2476,65.6999,131.9,100.141,101.69,0.00208387,0.211268,20.7781,68.3545,-0.139786,0.0,0.0
372,92.75,59.4605,66.3432,129.081,100.151,100.856,0.00209449,0.211065,20.7787,68.2143,-0.0638762,0.0,0.0
376,93.75,59.1883,65.9557,128.47,100.136,101.144,0.00211763,0.209967,20.7796,68.1743,-0.0912098,0.0,0.0
380,94.75,59.3309,66.3745,131.81,100.147,101.351,0.00214467,0.208622,20.7806,68.1242,-0.108805,0.0,0.0
384,95.75,59.147,66.3078,130.523,100.129,101.163,0.00215768,0.20754,20.7814,68.0642,-0.0935817,0.0,0.0
388,96.75,59.3514,66.2289,132.135,100.167,101.727,0.00216908,0.206786,20.782,68.0141,-0.140803,0.0,0.0
392,97.75,59.0867,66.4335,133.389,100.163,100.993,0.00220532,0.206342,20.7824,67.884,-0.0751592,0.0,0.0
396,98.75,59.1715,66.0758,130.035,100.152,101.573,0.00226421,0.206167,20.7833,67.824,-0.128326,0.0,0.0
400,99.75,58.5748,65.8598,129.763,100.157,100.879,0.0023479,0.206214,20.784,67.7739,-0.0654383,0.0,0.0
404,100.75,59.164,65.9609,133.03,100.149,101.153,0.00241702,0.206121,20.7845,67.6538,-0.0908468,0.0,0.0
408,101.75,58.7594,65.5858,125.359,100.155,101.712,0.0024502,0.205584,20.7848,67.6138,-0.140525,0.0,0.0
412,102.75,59.7249,65.5617,129.761,100.157,100.983,0.00242331,0.204809,20.7855,67.5437,-0.0748264,0.0,0.0
416,103.75,58.6092,65.7838,131.214,100.159,101.395,0.00239373,0.203564,20.7862,67.4836,-0.111708,0.0,0.0
420,104.75,58.2203,65.7569,129.618,100.16,101.163,0.00230457,0.202496,20.7868,67.3635,-0.0907168,0.0,0.0
424,105.75,58.7104,66.0376,129.529,100.166,101.062,0.00223802,0.201468,20.7871,67.2534,-0.0811009,0.0,0.0
428,106.75,59.2089,65.6702,130.77,100.167,101.115,0.00219117,0.200348,20.7881,67.3135,-0.0857509,0.0,0.0
432,107.75,59.2413,65.1985,129.052,100.163,101.095,0.00215454,0.199344,20.7886,67.2034,-0.0843283,0.0,0.0
436,108.75,58.7639,65.6184,126.617,100.158,101.408,0.00210295,0.197888,20.79,67.0632,-0.112972,0.0,0.0
440,109.75,58.9804,65.3027,131.868,100.156,100.992,0.00206681,0.196732,20.7916,67.0332,-0.0757225,0.0,0.0
444,110.75,58.4205,65.1153,128.968,100.16,101.554,0.00205492,0.195776,20.7927,66.9631,-0.125884,0.0,0.0
448,111.75,58.5627,65.3446,126.321,100.16,101.789,0.00207888,0.194816,20.7934,66.9031,-0.146967,0.0,0.0
452,112.75,58.6487,64.8766,136.123,100.154,101.086,0.00211767,0.193719,20.7946,66.843,-0.0843086,0.0,0.0
456,113.75,58.9124,65.4731,129.886,100.16,101.016,0.00215269,0.192897,20.7957,66.773,-0.0774421,0.0,0.0
460,114.75,58.6086,65.2101,131.673,100.157,100.958,0.00217566,0.192527,20.797,66.7129,-0.0725255,0.0,0.0
464,115.75,58.6645,65.2528,130.257,100.157,101.074,0.00219074,0.192484,20.7981,66.6629,-0.0830511,0.0,0.0
468,116.75,58.9061,65.4025,128.139,100.152,101.205,0.00221306,0.192443,20.7988,66.5728,-0.0952993,0.0,0.0
472,117.75,58.7961,64.755,131.835,100.143,101.343,0.00223778,0.192414,20.7993,66.5527,-0.108448,0.0,0.0
476,118.75,58.2204,65.0796,133.446,100.141,101.152,0.00229226,0.192594,20.7996,66.5327,-0.0915289,0.0,0.0
480,119.75,58.6606,65.2223,127.298,100.152,101.266,0.00232576,0.192913,20.7998,66.4126,-0.100795,0.0,0.0
484,120.75,58.1876,65.1134,131.234,100.154,100.853,0.00233648,0.193251,20.7999,66.3526,-0.0633995,0.0,0.0
488,121.75,58.5528,65.2799,133.625,100.142,101.105,0.00234352,0.193353,20.7994,66.3125,-0.0871419,0.0,0.0
492,122.75,58.8763,64.4259,125.733,100.139,101.16,0.0023499,0.192851,20.7988,66.2425,-0.0923389,0.0,0.0
496,123.75,58.5617,64.4526,127.735,100.14,100.902,0.0023457,0.191961,20.7985,66.1724,-0.0690699,0.0,0.0
500,124.75,58.7454,65.378,129.448,100.136,101.212,0.00232725,0.191302,20.7983,66.1624,-0.0974039,0.0,0.0
504,125.75,58.7965,63.8569,132.531,100.144,101.107,0.00226783,0.190723,20.7989,66.0723,-0.0871567,0.0,0.0
508,126.75,57.8572,65.0771,132.24,100.129,101.201,0.00220173,0.190384,20.8,66.0122,-0.0969924,0.0,0.0
512,127.75,58.4821,64.5318,131.4,100.131,100.997,0.00215836,0.189895,20.8008,65.9822,-0.0785088,0.0,0.0
516,128.75,57.7715,64.7752,130.565,100.113,101.35,0.0021569,0.188959,20.8014,65.8721,-0.111856,0.0,0.0
520,129.75,58.1443,64.2645,130.629,100.127,101.071,0.00217741,0.188137,20.8021,65.792,-0.0854346,0.0,0.0
524,130.75,58.7254,64.4902,129.742,100.12,101.388,0.00219106,0.187182,20.803,65.712,-0.11457,0.0,0.0
528,131.75,58.0353,64.7451,133.196,100.117,100.892,0.00218551,0.186359,20.8036,65.742,-0.0702652,0.0,0.0
532,132.75,58.5757,64.7271,131.148,100.111,100.683,0.00214605,0.185642,20.8048,65.6719,-0.0518777,0.0,0.0
536,133.75,58.8355,64.3278,134.034,100.1,101.065,0.00211582,0.185124,20.8056,65.6019,-0.087388,0.0,0.0
540,134.75,58.44,64.2322,134.215,100.093,101.3,0.00211855,0.184851,20.8069,65.5418,-0.109221,0.0,0.0
544,135.75,58.1319,64.1238,131.822,100.084,101.1,0.00214427,0.184755,20.8078,65.4717,-0.0920016,0.0,0.0
548,136.75,57.9498,64.7407,132.389,100.092,101.207,0.0022084,0.184711,20.8084,65.4217,-0.100889,0.0,0.0
552,137.75,57.8956,63.8575,134.349,100.089,101.042,0.00226043,0.184018,20.8088,65.3616,-0.0863636,0.0,0.0
556,138.75,58.5068,64.2855,131.666,100.056,101.084,0.00230262,0.182944,20.8092,65.3016,-0.0930453,0.0,0.0
560,139.75,58.5214,64.412,133.662,100.06,100.875,0.00230329,0.182028,20.8095,65.2615,-0.0738581,0.0,0.0
564,140.75,57.9257,64.116,131.865,100.044,101.241,0.00227881,0.181495,20.8097,65.1714,-0.108402,0.0,0.0
568,141.75,57.4838,62.8577,130.279,100.03,101.116,0.00224622,0.180806,20.81,65.0814,-0.0983747,0.0,0.0
572,142.75,58.0235,63.8526,129.234,100.019,101.245,0.00221057,0.180354,20.8111,65.0113,-0.110945,0.0,0.0
576,143.75,58.289,63.7857,131.937,100.02,100.572,0.00217346,0.180168,20.8123,64.9312,-0.0500652,0.0,0.0
580,144.75,57.4809,64.1325,133.758,100.016,101.069,0.00213585,0.179635,20.8132,64.9512,-0.095404,0.0,0.0
584,145.75,57.8564,64.2856,128.436,99.9848,101.082,0.00210615,0.178549,20.8137,64.8612,-0.0994246,0.0,0.0
588,146.75,58.3141,63.7192,132.215,99.981,100.935,0.00205295,0.177485,20.8141,64.8211,-0.0865253,0.0,0.0
592,147.75,57.6418,63.7607,126.344,99.9684,100.871,0.00197537,0.176192,20.8143,64.7911,-0.0819083,0.0,0.0
596,148.75,58.4941,63.9176,129.435,99.9503,100.52,0.00189529,0.175417,20.8157,64.7511,-0.0517439,0.0,0.0
600,149.75,57.3187,64.0796,130.311,99.9319,101.064,0.00183602,0.175229,20.8176,64.671,-0.102602,0.0,0.0
604,150.75,57.6738,63.6245,129.513,99.9306,101.049,0.00180951,0.175667,20.819,64.6109,-0.101402,0.0,0.0
608,151.75,57.506,63.6031,129.639,99.905,100.901,0.00181579,0.176175,20.8197,64.5509,-0.0903248,0.0,0.0
612,152.75,57.1944,64.3865,130.688,99.892,100.877,0.001831,0.176556,20.8204,64.3807,-0.0893702,0.0,0.0
616,153.75,57.8105,63.9172,134.396,99.8718,100.969,0.00190384,0.176459,20.8208,64.4207,-0.0994833,0.0,0.0
620,154.75,57.1706,64.1183,131.234,99.8508,100.765,0.0019899,0.176102,20.8199,64.2005,-0.082987,0.0,0.0
624,155.75,58.0736,63.9317,133.645,99.8512,100.835,0.00208911,0.176058,20.8189,64.2906,-0.0893373,0.0,0.0
628,156.75,57.9345,63.6809,131.659,99.8378,100.405,0.00216996,0.176513,20.8183,64.2806,-0.0515862,0.0,0.0
632,157.75,57.4501,63.6006,131.216,99.839,101.077,0.00221547,0.176946,20.8179,64.1905,-0.112218,0.0,0.0
636,158.75,57.827,63.6994,135.223,99.8289,100.659,0.00227199,0.177538,20.8175,64.1805,-0.0754099,0.0,0.0
640,159.75,58.0639,63.2546,130.464,99.8172,101.012,0.0023157,0.177452,20.817,64.1505,-0.108373,0.0,0.0
644,160.75,57.3844,63.5191,129.4,99.7987,100.538,0.00235235,0.177135,20.8163,64.1405,-0.0671839,0.0,0.0
648,161.75,57.9714,63.4571,128.592,99.7995,100.746,0.00235334,0.176294,20.8151,64.0404,-0.0859728,0.0,0.0
652,162.75,57.3148,63.1533,127.423,99.7958,101.008,0.00232043,0.175574,20.8139,63.9703,-0.109998,0.0,0.0
656,163.75,57.6522,63.3894,128.294,99.7785,100.689,0.00226301,0.174963,20.8136,63.9303,-0.0827744,0.0,0.0
660,164.75,57.7935,63.2843,132.782,99.7823,100.681,0.002218,0.174143,20.8146,63.8902,-0.0816448,0.0,0.0
664,165.75,57.588,63.8472,131.172,99.7785,101.155,0.00220391,0.173438,20.8154,63.8702,-0.124804,0.0,0.0
668,166.75,57.5577,63.6371,130.216,99.776,101.167,0.00220473,0.173084,20.8166,63.8402,-0.126103,0.0,0.0
672,167.75,57.5417,63.2985,128.223,99.7706,100.97,0.00223903,0.173045,20.8173,63.7601,-0.108843,0.0,0.0
676,168.75,57.8483,63.8737,134.181,99.7617,101.029,0.00227752,0.173222,20.8178,63.7101,-0.114955,0.0,0.0
680,169.75,58.0107,64.0075,125.887,99.7668,100.97,0.00232483,0.172997,20.8183,63.62,-0.109147,0.0,0.0
684,170.75,57.0751,63.9183,126.431,99.7735,100.919,0.00237306,0.172145,20.8188,63.59,-0.103965,0.0,0.0
688,171.75,58.4313,64.1237,132.054,99.7743,100.518,0.00241481,0.171056,20.819,63.5199,-0.0676718,0.0,0.0
692,172.75,57.6875,63.6943,128.094,99.7802,100.654,0.00243995,0.170303,20.8197,63.5299,-0.0794019,0.0,0.0
696,173.75,57.9103,63.6822,130.39,99.776,100.876,0.00245317,0.170198,20.8204,63.4398,-0.0998648,0.0,0.0
700,174.75,57.7133,63.8321,131.502,99.7811,100.779,0.00245189,0.170298,20.8217,63.4098,-0.0906686,0.0,0.0
704,175.75,58.0149,63.6782,132.917,99.7777,101.167,0.00244626,0.170516,20.8226,63.3898,-0.125949,0.0,0.0
708,176.75,57.5543,63.8473,130.125,99.8004,100.803,0.0024268,0.170626,20.8231,63.3297,-0.0910491,0.0,0.0
712,177.75,57.6173,63.6039,129.386,99.7844,100.936,0.00241403,0.170537,20.8229,63.2897,-0.104532,0.0,0.0
716,178.75,57.393,63.728,129.839,99.7953,100.738,0.00241691,0.170105,20.8225,63.2096,-0.0856138,0.0,0.0
720,179.75,57.8574,63.6338,129.339,99.7916,101.051,0.00244583,0.16915,20.8223,63.1495,-0.114206,0.0,0.0
724,180.75,57.7024,63.4748,132.032,99.8004,100.912,0.00247602,0.167635,20.8222,63.0895,-0.100853,0.0,0.0
728,181.75,57.9228,63.5252,132.199,99.8084,100.444,0.00250614,0.16675,20.8223,63.0494,-0.0578272,0.0,0.0
732,182.75,57.4659,63.5382,130.802,99.8105,100.946,0.00252442,0.166571,20.823,63.0194,-0.103061,0.0,0.0
736,183.75,57.3233,63.032,131.08,99.8214,100.993,0.0025344,0.166707,20.8243,62.9994,-0.106302,0.0,0.0
740,184.75,57.5637,63.0592,130.054,99.8142,100.978,0.00254627,0.167034,20.826,62.9393,-0.105556,0.0,0.0
744,185.75,57.513,62.7318,132.941,99.8533,101.017,0.0025626,0.166913,20.8273,62.9494,-0.10557,0.0,0.0
748,186.75,57.3031,63.1606,130.732,99.8558,100.716,0.00257647,0.166112,20.8281,62.9093,-0.0781151,0.0,0.0
752,187.75,57.5288,63.2206,129,99.8638,100.865,0.00258658,0.164974,20.8286,62.8893,-0.0908248,0.0,0.0
756,188.75,57.453,63.0757,128.45,99.8651,101.102,0.00256617,0.163797,20.829,62.8192,-0.112103,0.0,0.0
760,189.75,57.2533,63.0895,128.393,99.8684,100.735,0.00252349,0.162272,20.8292,62.7892,-0.0786566,0.0,0.0
764,190.75,57.3922,63.4307,133.408,99.8852,100.962,0.00247296,0.161065,20.83,62.7492,-0.0976399,0.0,0.0
768,191.75,57.2219,63.4895,127.165,99.9121,100.804,0.00241955,0.160431,20.8313,62.6891,-0.0809815,0.0,0.0
772,192.75,57.8055,63.4565,135.176,99.9016,101.119,0.00238226,0.160234,20.833,62.6591,-0.110332,0.0,0.0
776,193.75,57.6278,60.8847,130.035,99.9025,100.916,0.00235602,0.160399,20.8342,62.609,-0.0919128,0.0,0.0
780,194.75,56.8336,62.9404,129.658,99.9197,100.695,0.00233047,0.161449,20.8351,62.559,-0.0704375,0.0,0.0
784,195.75,57.3429,63.2167,131.567,99.9335,100.576,0.00229325,0.162353,20.8356,62.549,-0.0583992,0.0,0.0
788,196.75,57.1047,62.7699,130.298,99.9331,100.609,0.00226564,0.162997,20.8359,62.4989,-0.0613693,0.0,0.0
792,197.75,57.0773,62.6218,129.36,99.9478,101.239,0.00224527,0.162984,20.8349,62.4689,-0.11692,0.0,0.0
796,198.75,56.6507,62.8673,128.551,99.9604,101.017,0.00222516,0.162396,20.8339,62.4289,-0.0957639,0.0,0.0
800,199.75,57.1262,62.663,132.708,99.9676,101.834,0.00220487,0.161264,20.8333,62.3688,-0.168476,0.0,0.0
804,200.75,57.3095,62.5908,132.566,99.9743,100.647,0.00218257,0.159664,20.8333,62.3388,-0.0610458,0.0,0.0
808,201.75,57.6071,62.3509,132.667,99.9877,100.907,0.00216668,0.158559,20.8336,62.2887,-0.0834018,0.0,0.0
812,202.75,55.5843,62.8403,128.062,100.006,100.975,0.0021678,0.157747,20.8339,62.1986,-0.0878067,0.0,0.0
816,203.75,57.3329,62.5021,135.897,100.018,101.048,0.00217789,0.157016,20.8356,62.1486,-0.0932811,0.0,0.0
820,204.75,57.1518,62.5812,128.694,100.013,101.074,0.0021877,0.156384,20.8368,62.1086,-0.0961211,0.0,0.0
824,205.75,57.3507,62.5922,130.797,100.057,101.158,0.00218064,0.155851,20.8375,62.0986,-0.0996655,0.0,0.0
828,206.75,57.2377,62.9631,137.08,100.062,100.891,0.00218275,0.155478,20.8382,62.0285,-0.0751466,0.0,0.0
832,207.75,56.8476,62.6774,132.409,100.051,101.771,0.00220528,0.155398,20.8392,61.9584,-0.155273,0.0,0.0
836,208.75,56.7618,62.3086,133.122,100.064,100.987,0.00223717,0.155172,20.8396,61.9184,-0.0836806,0.0,0.0
840,209.75,57.0789,61.9243,137.483,100.065,101.086,0.00226963,0.155018,20.8397,61.9184,-0.0924892,0.0,0.0
844,210.75,56.7324,62.7573,136.598,100.065,101.661,0.00228901,0.154852,20.8399,61.8483,-0.144088,0.0,0.0
848,211.75,56.8593,62.2717,129.351,100.073,100.918,0.00228112,0.154838,20.84,61.8383,-0.0766641,0.0,0.0
852,212.75,56.5466,62.5231,134.626,100.073,101.006,0.00226232,0.154732,20.8401,61.8283,-0.0844472,0.0,0.0
856,213.75,57.3146,62.6403,131.962,100.079,101.001,0.00225823,0.154329,20.8402,61.7382,-0.0835387,0.0,0.0
860,214.75,57.0418,61.6531,131.681,100.096,100.76,0.0022726,0.153265,20.8404,61.6882,-0.0602238,0.0,0.0
864,215.75,57.0862,62.1475,130.949,100.09,100.798,0.00228453,0.151808,20.8412,61.6381,-0.064225,0.0,0.0
868,216.75,56.2457,61.9436,130.932,100.082,100.723,0.00228917,0.150511,20.8417,61.6381,-0.0581861,0.0,0.0
872,217.75,56.8583,61.8671,129.719,100.08,100.922,0.00227421,0.149823,20.8426,61.5981,-0.076305,0.0,0.0
876,218.75,56.0989,61.7666,131.778,100.094,101.615,0.00223965,0.149958,20.844,61.5681,-0.137439,0.0,0.0
880,219.75,56.497,61.2572,125.15,100.096,101.052,0.00220123,0.15022,20.8451,61.538,-0.0865773,0.0,0.0
884,220.75,56.3283,61.3991,131.97,100.095,100.973,0.00217071,0.150014,20.8458,61.478,-0.079535,0.0,0.0
888,221.75,56.5665,61.5878,131.286,100.093,100.933,0.00215634,0.149196,20.8463,61.488,-0.0761878,0.0,0.0
892,222.75,56.538,61.062,132.429,100.098,101.446,0.0021547,0.148164,20.8466,61.498,-0.121798,0.0,0.0
896,223.75,56.3331,61.74,128.045,100.092,101.115,0.00217388,0.147335,20.8468,61.4179,-0.0925901,0.0,0.0
900,224.75,56.5588,61.2261,128.491,100.086,101.251,0.00220867,0.146599,20.847,61.3979,-0.105443,0.0,0.0
904,225.75,56.2739,61.5984,133.848,100.077,101.497,0.00225065,0.145878,20.8477,61.3779,-0.128295,0.0,0.0
908,226.75,56.4271,61.6508,129.25,100.064,100.844,0.00230296,0.145185,20.8489,61.3979,-0.070716,0.0,0.0
912,227.75,56.9143,62.2899,129.046,100.052,100.885,0.00234404,0.144818,20.8499,61.3679,-0.0754909,0.0,0.0
916,228.75,55.8127,60.9354,128.913,100.045,101.267,0.00236424,0.144639,20.8506,61.3278,-0.110547,0.0,0.0
920,229.75,56.6077,62.1067,130.912,100.055,100.874,0.00237375,0.144405,20.851,61.2678,-0.0742342,0.0,0.0
924,230.75,56.3068,61.8438,130.119,100.023,101.4,0.00237698,0.144228,20.8513,61.2578,-0.124465,0.0,0.0
928,231.75,56.3695,61.8207,128.823,100.018,100.836,0.00239329,0.144077,20.8514,61.2077,-0.0742216,0.0,0.0
932,232.75,56.3518,62.0465,133.294,100.007,101.044,0.00242733,0.143925,20.8515,61.1877,-0.0939432,0.0,0.0
936,233.75,55.5105,61.1668,129.01,99.9823,101.317,0.00247091,0.143441,20.8515,61.1076,-0.120755,0.0,0.0
940,234.75,56.4988,61.4953,132.496,99.9617,101.116,0.0025109,0.142907,20.8515,61.1076,-0.10457,0.0,0.0
944,235.75,56.2799,61.0086,132.098,99.9659,101.086,0.00254438,0.142692,20.8515,61.0376,-0.101475,0.0,0.0
948,236.75,56.3272,61.6857,130.22,99.9205,100.894,0.0025645,0.142991,20.8516,60.9875,-0.0882902,0.0,0.0
952,237.75,56.2352,61.5513,136.077,99.9088,101.24,0.00256578,0.142899,20.8516,61.0175,-0.120603,0.0,0.0
956,238.75,56.2131,61.4202,133.038,99.8768,100.776,0.00255888,0.142379,20.8516,61.0075,-0.0816016,0.0,0.0
960,239.75,56.3744,61.7802,129.294,99.8541,100.81,0.00256815,0.141728,20.8516,60.9475,-0.0868026,0.0,0.0
964,240.75,56.3106,61.5721,136.221,99.8432,100.813,0.00260141,0.141289,20.8516,60.9274,-0.0880046,0.0,0.0
968,241.75,55.9773,61.2707,131.779,99.8004,100.98,0.00268415,0.140857,20.8522,60.9174,-0.106985,0.0,0.0
972,242.75,56.3671,61.2006,134.173,99.792,100.683,0.00280165,0.139986,20.8528,60.8974,-0.0809694,0.0,0.0
976,243.75,56.0658,60.9399,130.338,99.7496,101.035,0.00291746,0.138832,20.8534,60.7873,-0.116642,0.0,0.0
980,244.75,55.8254,61.2225,132.965,99.7185,100.354,0.00303855,0.137555,20.8544,60.8073,-0.0578813,0.0,0.0
984,245.75,55.985,61.2696,130.448,99.7042,100.284,0.00313663,0.136696,20.855,60.7273,-0.0528087,0.0,0.0
988,246.75,56.384,61.0608,135.087,99.6496,100.094,0.00320047,0.13617,20.8554,60.6872,-0.0405068,0.0,0.0
992,247.75,56.3889,61.3733,131.226,99.6068,100.689,0.00321448,0.135896,20.8565,60.6572,-0.098429,0.0,0.0
996,248.75,56.5059,61.2451,131.56,99.5799,100.66,0.00318429,0.135874,20.8572,60.6372,-0.0982457,0.0,0.0
1000,249.75,55.8057,60.9154,134.594,99.5467,99.9072,0.00313883,0.135994,20.8576,60.5871,-0.0329246,0.0,0.0
1004,250.75,56.0506,60.9186,130.232,99.5085,100.226,0.00306096,0.13619,20.8579,60.6172,-0.0654438,0.0,0.0
1008,251.75,55.8141,60.5572,134.552,99.4639,100.788,0.00297027,0.136276,20.8581,60.5971,-0.120488,0.0,0.0
1012,252.75,55.7116,60.4272,131.38,99.4215,100.171,0.00290234,0.136043,20.8583,60.5471,-0.0684299,0.0,0.0
1016,253.75,55.794,60.3989,134.336,99.3904,100.186,0.00285676,0.135603,20.8584,60.5471,-0.0726049,0.0,0.0
1020,254.75,55.0719,60.2597,129.596,99.3472,100.322,0.00286071,0.135006,20.8591,60.5071,-0.0889612,0.0,0.0
1024,255.75,56.152,60.3786,130.017,99.3144,100.606,0.0028885,0.134373,20.8598,60.5371,-0.117646,0.0,0.0
1028,256.75,55.8171,60.4707,133.452,99.2875,100.138,0.00291315,0.13358,20.8603,60.5271,-0.0777268,0.0,0.0
1032,257.75,55.5382,60.3611,130.805,99.2489,99.9647,0.0029106,0.1325,20.8606,60.5271,-0.0654514,0.0,0.0
1036,258.75,55.6633,60.4282,132.968,99.2073,100.085,0.00285763,0.131164,20.861,60.497,-0.0802344,0.0,0.0
1040,259.75,55.7584,60.2867,129.719,99.1758,99.9149,0.00274564,0.130342,20.8623,60.427,-0.0676307,0.0,0.0
1044,260.75,55.4487,60.4842,132.464,99.1519,100.085,0.00263441,0.13013,20.8639,60.3769,-0.0852845,0.0,0.0
1048,261.75,55.9122,60.4444,131.971,99.1006,99.9368,0.00255652,0.130372,20.8654,60.3569,-0.0765333,0.0,0.0
1052,262.75,54.9342,60.6814,133.449,99.0603,99.7111,0.00252954,0.130694,20.8663,60.3269,-0.0596402,0.0,0.0
1056,263.75,55.3441,60.4449,134.169,99.0536,100.292,0.002531,0.13082,20.8669,60.2868,-0.113185,0.0,0.0
1060,264.75,55.0814,59.7877,132.281,99.0271,99.5245,0.00258606,0.130864,20.8667,60.2268,-0.0456337,0.0,0.0
1064,265.75,55.6835,60.5987,135.18,98.9952,99.6363,0.00263797,0.130885,20.8664,60.1968,-0.0587921,0.0,0.0
1068,266.75,55.4159,60.3909,132.344,98.9771,99.4465,0.00268803,0.130977,20.8662,60.2368,-0.0430909,0.0,0.0
1072,267.75,55.4295,59.5262,132.853,98.962,99.9879,0.00274014,0.131091,20.866,60.2668,-0.0939366,0.0,0.0
1076,268.75,55.3779,59.872,134.259,98.9398,99.4652,0.00280267,0.130948,20.866,60.1667,-0.0482443,0.0,0.0
1080,269.75,55.5746,60.1581,133.591,98.9381,99.8265,0.00287555,0.1305,20.8659,60.2168,-0.0814197,0.0,0.0
1084,270.75,54.7816,59.7072,133.066,98.9045,99.7521,0.00294707,0.130013,20.8659,60.1567,-0.0777274,0.0,0.0
1088,271.75,55.1115,60.1644,139.092,98.8998,99.6641,0.00300047,0.129611,20.8658,60.1067,-0.0701115,0.0,0.0
1092,272.75,55.4144,59.6205,135.173,98.8931,99.7234,0.00305439,0.129321,20.8658,60.0466,-0.0761484,0.0,0.0
1096,273.75,54.5057,60.3937,130.674,98.878,99.7818,0.00310581,0.128915,20.8658,60.1467,-0.0828714,0.0,0.0
1100,274.75,55.1818,60.1756,134.55,98.8973,99.5637,0.00315633,0.127995,20.8658,60.1167,-0.0611682,0.0,0.0
1104,275.75,55.3802,59.8773,131.574,98.8784,99.836,0.00319408,0.127147,20.8658,60.0867,-0.0877865,0.0,0.0
1108,276.75,55.6947,60.1554,128.046,98.8818,99.4812,0.00321986,0.126741,20.8664,60.0766,-0.0550439,0.0,0.0
1112,277.75,55.241,59.9409,131.579,98.8889,99.6778,0.00324034,0.126841,20.8669,60.0466,-0.0723674,0.0,0.0
1116,278.75,54.8122,59.5505,128.566,98.9129,99.7029,0.00327599,0.127424,20.8671,59.9966,-0.0724549,0.0,0.0
1120,279.75,54.6124,59.8372,132.645,98.9309,100.301,0.00332515,0.127614,20.8672,60.0366,-0.125257,0.0,0.0
1124,280.75,54.9546,59.6006,132.639,98.9322,99.7184,0.00338749,0.127343,20.8673,59.9565,-0.0720927,0.0,0.0
1128,281.75,53.7933,57.8214,133.162,98.944,99.5564,0.00345352,0.126901,20.8673,59.9565,-0.0562074,0.0,0.0
1132,282.75,53.6163,58.2736,132.385,98.97,99.8944,0.00349997,0.126475,20.8674,59.9065,-0.0846801,0.0,0.0
1136,283.75,52.8714,57.7067,130.225,99.0078,99.5409,0.00352242,0.125943,20.8674,59.9165,-0.0489134,0.0,0.0
1140,284.75,53.4449,58.2032,134.611,99.0275,99.5519,0.00350369,0.125552,20.868,59.8965,-0.0480997,0.0,0.0
1144,285.75,53.7124,57.5883,130.679,99.046,99.9236,0.0034476,0.124729,20.8686,59.8865,-0.0803478,0.0,0.0
1148,286.75,53.29,58.0976,129.251,99.0834,100.173,0.00335318,0.123999,20.869,59.9165,-0.0995838,0.0,0.0
1152,287.75,53.5738,57.7407,131.873,99.1162,99.9318,0.00326012,0.123498,20.8693,59.8865,-0.074648,0.0,0.0
1156,288.75,53.6601,57.6821,130.912,99.151,100.283,0.00317701,0.123293,20.8695,59.9165,-0.103442,0.0,0.0
1160,289.75,52.9567,58.0917,132.572,99.1855,99.9939,0.00313516,0.123192,20.8696,59.8464,-0.0739348,0.0,0.0
1164,290.75,53.0631,58.0128,132.734,99.2233,100.04,0.00314009,0.123084,20.8696,59.8464,-0.0746589,0.0,0.0
1168,291.75,52.7717,57.3073,132.863,99.2804,99.992,0.00317539,0.122971,20.8697,59.8164,-0.0650545,0.0,0.0
1172,292.75,53.5121,57.4929,130.569,99.301,100.066,0.00321816,0.122825,20.8697,59.8064,-0.0699364,0.0,0.0
1176,293.75,53.5433,57.1753,135.831,99.3673,100.155,0.00324793,0.122527,20.8697,59.7864,-0.0719438,0.0,0.0
1180,294.75,52.315,57.249,132.783,99.4152,100.311,0.00327781,0.121993,20.8697,59.7764,-0.0817308,0.0,0.0
1184,295.75,52.8714,57.6518,131.351,99.4732,100.33,0.0033277,0.121269,20.8702,59.7563,-0.0780789,0.0,0.0
1188,296.75,53.1919,57.5769,134.685,99.5236,100.676,0.00340249,0.120546,20.8707,59.7463,-0.10484,0.0,0.0
1192,297.75,53.3881,58.0843,130.855,99.5786,100.372,0.00347853,0.119841,20.8709,59.7263,-0.0723214,0.0,0.0
1196,298.75,53.187,57.9411,133.097,99.6286,100.45,0.00353322,0.119243,20.871,59.7263,-0.0748269,0.0,0.0
1200,299.75,52.3967,57.1335,131.067,99.692,100.863,0.00356911,0.11885,20.8711,59.6763,-0.106342,0.0,0.0
1204,300.75,53.0345,57.3977,131.37,99.7479,100.44,0.00357263,0.118403,20.8715,59.7463,-0.0630179,0.0,0.0
1208,301.75,53.513,57.0385,132.771,99.8096,100.824,0.00354745,0.118137,20.873,59.7263,-0.0921014,0.0,0.0
1212,302.75,52.1667,57.4466,134.726,99.8487,101.427,0.00351931,0.118233,20.8745,59.6963,-0.142849,0.0,0.0
1216,303.75,52.6086,57.1379,132.411,99.9285,100.655,0.00350508,0.118361,20.8755,59.6963,-0.0660015,0.0,0.0
1220,304.75,52.1868,56.7653,131.916,99.9949,100.611,0.00352333,0.118272,20.8761,59.6462,-0.0559911,0.0,0.0
1224,305.75,53.0521,57.4731,134.843,100.06,100.902,0.00355356,0.117975,20.8766,59.6562,-0.0764079,0.0,0.0
1228,306.75,53.0074,56.3288,134.049,100.114,101.239,0.00363238,0.117557,20.8769,59.6362,-0.101775,0.0,0.0
1232,307.75,52.5112,57.1642,135.381,100.168,101.355,0.00371247,0.117182,20.8772,59.5962,-0.107263,0.0,0.0
1236,308.75,52.5648,56.7092,136.406,100.214,101.285,0.00377226,0.116878,20.8776,59.5662,-0.0968662,0.0,0.0
1240,309.75,53.1,57.4177,133.136,100.266,100.788,0.0037722,0.116598,20.878,59.5862,-0.0473171,0.0,0.0
1244,310.75,52.9135,57.4137,133.887,100.308,100.876,0.00373616,0.116307,20.8789,59.5962,-0.0514131,0.0,0.0
1248,311.75,52.932,57.6348,137.467,100.347,100.991,0.00367572,0.115875,20.8797,59.5562,-0.0582779,0.0,0.0
1252,312.75,52.3189,57.4347,133.755,100.387,101.604,0.00362187,0.115399,20.8808,59.5562,-0.109781,0.0,0.0
1256,313.75,52.8513,56.9522,131.145,100.417,101.063,0.00357522,0.114938,20.8815,59.5461,-0.0584888,0.0,0.0
1260,314.75,52.8574,57.0503,136.308,100.437,101.345,0.00354461,0.114517,20.882,59.5562,-0.0819894,0.0,0.0
1264,315.75,52.4077,57.347,133.444,100.457,101.02,0.00352905,0.114151,20.8823,59.5361,-0.0508475,0.0,0.0
1268,316.75,53.1237,56.5281,134.336,100.499,101.227,0.00352956,0.113843,20.8829,59.5261,-0.0657713,0.0,0.0
1272,317.75,52.8034,56.5132,130.225,100.521,101.302,0.00353812,0.113659,20.8837,59.5161,-0.0704791,0.0,0.0
1276,318.75,52.8625,56.9343,136.309,100.522,101.84,0.00353091,0.113431,20.8842,59.5461,-0.118671,0.0,0.0
1280,319.75,52.5554,57.1158,131.692,100.54,102.106,0.00350785,0.11293,20.8846,59.5261,-0.140825,0.0,0.0
1284,320.75,52.1011,56.5137,134.946,100.55,101.487,0.0034574,0.112526,20.8848,59.5161,-0.0844505,0.0,0.0
1288,321.75,52.8189,56.9468,133.79,100.56,101.225,0.00340846,0.112276,20.8849,59.4661,-0.0600888,0.0,0.0
1292,322.75,52.8543,56.3851,132.349,100.565,101.232,0.0033885,0.112194,20.885,59.446,-0.0602096,0.0,0.0
1296,323.75,52.3299,57.1083,129.697,100.576,101.443,0.00338387,0.112267,20.8851,59.4561,-0.0781205,0.0,0.0
1300,324.75,52.0704,57.133,131.723,100.567,101.303,0.00342046,0.112441,20.884,59.426,-0.0664549,0.0,0.0
1304,325.75,52.1713,56.9425,132.891,100.582,101.14,0.00344707,0.112428,20.8833,59.446,-0.0504326,0.0,0.0
1308,326.75,52.5079,57.2513,132.715,100.571,101.212,0.00343563,0.112419,20.8829,59.406,-0.0578305,0.0,0.0
1312,327.75,52.5373,56.6081,138.117,100.566,101.07,0.00338313,0.112509,20.8826,59.396,-0.0455496,0.0,0.0
1316,328.75,51.833,56.8211,135.865,100.553,101.396,0.00330224,0.11292,20.8824,59.356,-0.0759935,0.0,0.0
1320,329.75,52.3455,56.7349,129.316,100.545,101.505,0.00325607,0.113135,20.8823,59.416,-0.0865855,0.0,0.0
1324,330.75,51.7565,56.3249,132.398,100.53,101.205,0.00325436,0.113148,20.8814,59.406,-0.0610228,0.0,0.0
1328,331.75,51.9236,56.8854,135.329,100.523,101.26,0.00332086,0.113016,20.8808,59.366,-0.0665178,0.0,0.0
1332,332.75,52.5921,56.8304,134.971,100.516,101.095,0.0034018,0.11256,20.8804,59.346,-0.0523413,0.0,0.0
1336,333.75,51.7495,56.261,134.675,100.514,101.319,0.00346707,0.111901,20.8802,59.3359,-0.0726498,0.0,0.0
1340,334.75,52.4568,56.5211,134.616,100.499,101.219,0.00348271,0.111188,20.8806,59.2559,-0.0650736,0.0,0.0
1344,335.75,52.5719,56.1995,139.347,100.479,101.563,0.00347691,0.110552,20.8811,59.2559,-0.0977546,0.0,0.0
1348,336.75,51.6372,57.0819,134.396,100.461,101.079,0.00347057,0.110096,20.8817,59.2659,-0.0558491,0.0,0.0
1352,337.75,52.1618,56.6364,131.686,100.453,101.285,0.00346564,0.10977,20.8828,59.1458,-0.0751707,0.0,0.0
1356,338.75,51.8183,56.4507,133.25,100.434,101.266,0.00345613,0.10979,20.8841,59.1758,-0.075082,0.0,0.0
1360,339.75,52.0353,56.4986,134.178,100.435,101.042,0.00342454,0.110249,20.885,59.2459,-0.0548806,0.0,0.0
1364,340.75,51.8448,55.9862,137.264,100.396,100.807,0.00339369,0.110951,20.8856,59.2559,-0.037145,0.0,0.0
1368,341.75,51.0672,55.6785,133.88,100.377,100.848,0.00335384,0.111654,20.886,59.2359,-0.0426065,0.0,0.0
1372,342.75,51.8027,56.3023,131.933,100.359,101.622,0.00334559,0.112143,20.8858,59.2258,-0.113967,0.0,0.0
1376,343.75,52.3115,56.0258,131.314,100.346,101.432,0.00337268,0.112058,20.885,59.2158,-0.0980087,0.0,0.0
1380,344.75,51.4929,56.5035,131.399,100.32,101.175,0.00342549,0.111543,20.884,59.1858,-0.0773222,0.0,0.0
1384,345.75,51.8352,55.7503,130.84,100.309,101.283,0.00346628,0.110719,20.8833,59.1658,-0.0879613,0.0,0.0
1388,346.75,52.3921,56.0738,133.56,100.279,100.709,0.00348898,0.109568,20.8829,59.1958,-0.0389593,0.0,0.0
1392,347.75,51.926,56.7565,133.583,100.266,100.924,0.00345928,0.108318,20.8826,59.1858,-0.0596303,0.0,0.0
1396,348.75,52.0217,56.4496,132.808,100.244,101.293,0.00341793,0.107956,20.8824,59.1858,-0.0948176,0.0,0.0
1400,349.75,51.7836,56.7248,132.324,100.237,100.696,0.00336081,0.108654,20.8831,59.1758,-0.0415784,0.0,0.0
1404,350.75,52.3463,56.5604,132.028,100.216,101.203,0.00330561,0.109874,20.8843,59.1658,-0.0892101,0.0,0.0
1408,351.75,52.0323,56.4366,135.462,100.199,100.818,0.00326138,0.110947,20.8851,59.2158,-0.0560616,0.0,0.0
1412,352.75,51.8455,56.9369,134.902,100.181,100.97,0.00323235,0.111705,20.8857,59.1458,-0.0714536,0.0,0.0
1416,353.75,52.5234,56.9461,132.884,100.151,100.85,0.00321331,0.111981,20.8854,59.0957,-0.0633377,0.0,0.0
1420,354.75,51.3705,56.9777,132.676,100.138,101.029,0.0031963,0.111951,20.885,59.1658,-0.0807,0.0,0.0
1424,355.75,52.0825,56.5059,130.143,100.128,100.778,0.00320013,0.111824,20.8848,59.1658,-0.0589309,0.0,0.0
1428,356.75,52.0656,54.7742,133.592,100.107,100.644,0.00322859,0.111719,20.8846,59.1257,-0.0486755,0.0,0.0
1432,357.75,51.2614,56.3304,136.067,100.099,100.653,0.00328097,0.111517,20.8845,59.0657,-0.0503059,0.0,0.0
1436,358.75,52.0454,56.8592,135.148,100.081,100.532,0.00334476,0.111421,20.8845,59.1257,-0.0409229,0.0,0.0
1440,359.75,51.6183,56.3168,132.237,100.074,100.977,0.00337412,0.111593,20.8844,59.0557,-0.0817785,0.0,0.0
1444,360.75,51.8595,56.6367,134.464,100.061,100.996,0.00334025,0.111835,20.8844,59.0457,-0.0847716,0.0,0.0
1448,361.75,51.6754,56.1618,136.906,100.039,100.677,0.00326636,0.111937,20.8844,59.0257,-0.0578392,0.0,0.0
1452,362.75,51.2233,56.2719,129.107,100.037,100.594,0.00318165,0.111545,20.8844,59.0657,-0.0505969,0.0,0.0
1456,363.75,51.9333,56.2385,133.649,100.01,100.489,0.00305783,0.110925,20.8844,58.9856,-0.0434994,0.0,0.0
1460,364.75,51.862,54.5681,130.442,100.018,100.617,0.00293709,0.109976,20.8844,58.9756,-0.0544623,0.0,0.0
1464,365.75,51.3668,56.6795,133.739,100.004,100.711,0.00286332,0.109033,20.8844,58.9756,-0.0641884,0.0,0.0
1468,366.75,51.8642,56.725,136.618,99.9898,100.813,0.00280184,0.107773,20.8852,58.9656,-0.0746835,0.0,0.0
1472,367.75,51.5569,56.05,134.984,99.976,100.832,0.00277438,0.106895,20.8865,58.9956,-0.0776765,0.0,0.0
1476,368.75,52.0181,56.4049,135.774,99.9739,100.488,0.00275476,0.1067,20.888,58.9856,-0.0467075,0.0,0.0
1480,369.75,51.8759,56.5617,130.995,99.9823,100.918,0.00272445,0.107299,20.8891,58.9556,-0.0848461,0.0,0.0
1484,370.75,51.3481,56.1481,130.628,99.9713,100.928,0.00269043,0.108438,20.8899,58.9456,-0.086705,0.0,0.0
1488,371.75,51.5757,56.2612,132.725,99.9659,101.07,0.00267488,0.109819,20.8904,58.9156,-0.100037,0.0,0.0
1492,372.75,51.7911,56.1002,132.234,99.9613,101.144,0.00269488,0.110608,20.8903,58.9656,-0.107155,0.0,0.0
1496,373.75,51.2183,56.5025,130.135,99.9638,100.854,0.00274031,0.110744,20.8897,58.9055,-0.080764,0.0,0.0
1500,374.75,52.0513,56.9672,130.504,99.9688,100.476,0.00282655,0.110654,20.8886,58.9256,-0.04605,0.0,0.0
1504,375.75,51.8196,56.5545,130.516,99.968,100.576,0.00291387,0.110406,20.888,58.9055,-0.0552602,0.0,0.0
1508,376.75,51.8635,56.39,135.465,99.9667,100.624,0.00297723,0.110158,20.8875,58.9055,-0.0597112,0.0,0.0
1512,377.75,52.0781,56.1556,134.476,99.947,100.699,0.00296406,0.110062,20.8872,58.9055,-0.0683199,0.0,0.0
1516,378.75,51.3169,56.3924,133.757,99.9491,100.549,0.00292659,0.110205,20.887,58.8855,-0.0545032,0.0,0.0
1520,379.75,52.0629,56.6241,132.56,99.9541,100.548,0.00287268,0.110543,20.8869,58.8155,-0.05392,0.0,0.0
1524,380.75,51.493,56.0251,131.791,99.9457,100.467,0.0028531,0.110849,20.8868,58.8355,-0.0473695,0.0,0.0
1528,381.75,51.8564,56.3783,134.866,99.9558,101.186,0.00289669,0.110899,20.8868,58.7854,-0.11139,0.0,0.0
1532,382.75,51.836,56.4439,132.305,99.9461,100.759,0.00296268,0.110701,20.8867,58.8155,-0.0737996,0.0,0.0
1536,383.75,51.0582,56.1006,135.275,99.9386,100.604,0.00301604,0.11004,20.8867,58.8355,-0.0604583,0.0,0.0
1540,384.75,51.7386,56.3543,132.83,99.944,100.771,0.0030533,0.109369,20.8867,58.8255,-0.0750218,0.0,0.0
1544,385.75,51.5517,56.1733,134.402,99.9419,100.947,0.00303934,0.108685,20.8867,58.7954,-0.0911127,0.0,0.0
1548,386.75,51.6441,56.6697,134.73,99.9453,100.602,0.00298953,0.108224,20.8867,58.7354,-0.0596396,0.0,0.0
1552,387.75,52.2634,56.3817,131.352,99.9596,101.203,0.00293202,0.108011,20.8873,58.7854,-0.112606,0.0,0.0
1556,388.75,52.3511,56.8517,129.785,99.9487,100.579,0.00286947,0.108047,20.8879,58.7954,-0.0572268,0.0,0.0
1560,389.75,51.6441,56.0038,133.691,99.9407,100.265,0.00279009,0.108156,20.8883,58.7954,-0.0294916,0.0,0.0
1564,390.75,51.6435,56.3423,131.093,99.9575,100.523,0.00269194,0.10847,20.8885,58.7654,-0.0513416,0.0,0.0
1568,391.75,51.3244,55.8687,134.734,99.9596,100.663,0.0025837,0.108676,20.8887,58.7354,-0.0638708,0.0,0.0
1572,392.75,51.5553,55.9079,130.912,99.9629,100.9,0.00250129,0.108833,20.8888,58.7554,-0.084959,0.0,0.0
1576,393.75,51.5465,56.2424,133.938,99.9667,100.82,0.0024584,0.108941,20.8889,58.7454,-0.0774065,0.0,0.0
1580,394.75,51.7808,56.1833,134.057,99.9789,100.619,0.00245888,0.109336,20.889,58.7254,-0.0581064,0.0,0.0
1584,395.75,51.4678,56.5365,133.553,99.9852,100.803,0.00249857,0.109622,20.8895,58.7354,-0.0741975,0.0,0.0
1588,396.75,51.4146,55.4819,132.004,99.9823,100.921,0.0025452,0.109729,20.8898,58.7254,-0.0851338,0.0,0.0
1592,397.75,51.8874,56.1072,132.102,99.9894,100.501,0.00258184,0.10965,20.8899,58.7154,-0.0464903,0.0,0.0
1596,398.75,51.4051,56.2596,131.905,100.01,100.612,0.00258785,0.109394,20.8893,58.6753,-0.0546556,0.0,0.0
1600,399.75,51.2235,56.4839,134.03,100.007,100.637,0.00257151,0.10907,20.8888,58.6353,-0.0571525,0.0,0.0
1601,400,51.3801,55.8319,135.644,99.9991,100.677,0.00256839,0.108992,20.8887,58.6153,-0.061553,0.0,0.0