File: 01_Data/Cellulose_Insulation/Cone/Cellulose_Insulation_HRRPUA_75.csv
Time after Ignition,Cellulose_Insulation_R1,Cellulose_Insulation_R2,Cellulose_Insulation_R3,Mean,Std. Dev.
0.0,5.3,3.7,4.3,4.4,0.8
0.25,5.4,3.7,4.4,4.5,0.8
0.5,5.5,3.6,4.7,4.6,1.0
0.75,5.5,3.6,4.7,4.6,1.0
1.0,5.7,3.6,5.0,4.7,1.1
1.25,5.6,3.7,5.2,4.8,1.0
1.5,5.6,3.6,5.2,4.8,1.1
1.75,5.8,3.6,5.3,4.9,1.2
2.0,5.9,3.6,5.6,5.0,1.2
2.25,5.9,3.6,5.6,5.0,1.3
2.5,5.9,3.6,5.7,5.1,1.3
2.75,6.2,3.6,5.8,5.2,1.4
3.0,6.1,3.6,5.9,5.2,1.4
3.25,5.9,3.5,5.9,5.1,1.3
3.5,6.0,3.6,6.0,5.2,1.4
3.75,6.2,3.6,6.0,5.3,1.4
4.0,6.2,3.6,6.1,5.3,1.5
4.25,6.2,3.6,6.1,5.3,1.5
4.5,6.2,3.6,6.2,5.3,1.5
4.75,6.2,3.5,6.2,5.3,1.6
5.0,6.4,3.5,6.2,5.3,1.6
5.25,6.4,3.7,6.2,5.5,1.5
5.5,6.7,3.8,6.3,5.6,1.6
5.75,6.5,3.7,6.3,5.5,1.5
6.0,6.7,3.8,6.4,5.6,1.6
6.25,6.8,4.0,6.4,5.7,1.5
6.5,6.8,4.1,6.4,5.8,1.5
6.75,6.8,4.3,6.6,5.9,1.4
7.0,7.1,4.4,6.4,6.0,1.4
7.25,7.0,4.4,6.6,6.0,1.4
7.5,7.2,4.6,6.5,6.1,1.4
7.75,7.3,4.7,6.4,6.1,1.4
8.0,7.4,4.7,6.4,6.2,1.4
8.25,7.7,4.8,6.4,6.3,1.4
8.5,9.0,5.9,6.5,7.1,1.7
8.75,10.1,6.7,6.7,7.8,2.0
9.0,11.3,7.5,6.5,8.4,2.5
9.25,12.4,8.2,6.6,9.1,3.0
9.5,19.8,14.3,8.2,14.1,5.8
9.75,27.1,20.6,10.0,19.2,8.6
10.0,32.9,25.3,11.0,23.1,11.1
10.25,39.3,29.5,12.4,27.1,13.6
10.5,44.4,40.9,19.3,34.9,13.6
10.75,56.5,50.5,25.1,44.0,16.7
11.0,70.3,59.8,30.6,53.6,20.6
11.25,79.2,68.2,35.9,61.1,22.5
11.5,87.3,75.7,40.7,67.9,24.2
11.75,98.6,92.1,54.8,81.8,23.6
12.0,107.4,105.3,67.9,93.5,22.2
12.25,119.4,115.3,80.5,105.1,21.4
12.5,131.7,131.5,91.7,118.3,23.0
12.75,141.7,141.0,103.3,128.7,22.0
13.0,150.0,155.2,119.1,141.4,19.5
13.25,161.9,163.7,130.3,151.9,18.8
13.5,178.7,172.4,143.0,164.7,19.0
13.75,183.6,183.8,150.4,172.6,19.2
14.0,194.7,195.9,161.2,183.9,19.7
14.25,202.3,200.3,170.1,190.9,18.0
14.5,215.2,208.0,177.1,200.1,20.3
14.75,215.7,216.3,185.8,205.9,17.5
15.0,229.2,224.9,194.5,216.2,18.9
15.25,230.1,231.3,203.2,221.6,15.9
15.5,233.0,235.4,211.5,226.6,13.1
15.75,241.5,240.8,216.2,232.8,14.4
16.0,244.2,245.1,225.7,238.3,10.9
16.25,253.3,246.1,226.6,242.0,13.8
16.5,255.6,255.0,231.8,247.5,13.6
16.75,261.4,251.5,237.0,250.0,12.2
17.0,259.0,255.4,236.7,250.4,12.0
17.25,259.0,261.3,246.5,255.6,8.0
17.5,263.1,261.3,248.5,257.6,8.0
17.75,262.7,263.2,247.0,257.6,9.2
18.0,263.4,266.4,253.0,261.0,7.0
18.25,266.9,264.4,252.1,261.1,7.9
18.5,270.2,263.8,255.0,263.0,7.6
18.75,273.0,264.6,258.9,265.5,7.1
19.0,271.3,262.8,258.2,264.1,6.7
19.25,273.0,264.8,253.4,263.7,9.8
19.5,265.8,271.9,254.1,264.0,9.0
19.75,265.6,265.4,257.4,262.8,4.7
20.0,266.5,265.4,254.8,262.2,6.5
20.25,267.2,263.3,252.2,260.9,7.8
20.5,271.5,266.7,253.8,264.0,9.2
20.75,268.1,263.7,251.4,261.1,8.7
21.0,264.8,264.2,250.5,259.8,8.1
21.25,260.9,257.2,253.6,257.2,3.7
21.5,264.7,258.8,247.3,256.9,8.8
21.75,259.9,258.2,242.8,253.7,9.4
22.0,258.6,257.4,246.5,254.2,6.7
22.25,257.9,257.7,243.6,253.1,8.2
22.5,258.7,250.0,236.7,248.5,11.1
22.75,256.7,244.2,240.5,247.1,8.5
23.0,252.6,247.3,235.6,245.2,8.7
23.25,247.8,246.8,236.3,243.6,6.4
23.5,244.5,241.9,235.1,240.5,4.9
23.75,245.8,241.4,232.1,239.8,7.0
24.0,242.5,239.7,232.5,238.3,5.2
24.25,233.0,238.1,228.4,233.2,4.9
24.5,240.5,233.9,224.3,232.9,8.2
24.75,234.4,236.0,222.4,230.9,7.4
25.0,230.6,230.4,222.5,227.8,4.6
25.25,229.0,232.1,218.5,226.5,7.2
25.5,228.8,224.3,219.3,224.1,4.7
25.75,224.9,230.2,215.0,223.4,7.7
26.0,223.4,223.2,216.8,221.1,3.7
26.25,226.3,223.2,211.1,220.2,8.0
26.5,223.9,221.1,209.4,218.1,7.7
26.75,221.1,215.8,210.2,215.7,5.5
27.0,218.4,211.8,208.8,213.0,4.9
27.25,212.6,212.4,205.8,210.2,3.9
27.5,214.9,209.1,202.8,208.9,6.1
27.75,209.6,207.7,202.9,206.7,3.5
28.0,213.6,207.5,198.3,206.5,7.7
28.25,209.2,201.3,196.5,202.3,6.4
28.5,207.4,205.0,197.1,203.2,5.4
28.75,207.0,199.7,193.8,200.2,6.6
29.0,204.3,197.4,193.7,198.5,5.4
29.25,204.0,199.4,192.2,198.5,6.0
29.5,202.7,194.1,188.9,195.2,6.9
29.75,199.2,193.4,188.2,193.6,5.5
30.0,202.5,188.2,187.0,192.6,8.6
30.25,197.9,190.9,183.5,190.7,7.2
30.5,192.9,188.0,180.2,187.0,6.4
30.75,196.2,185.3,178.5,186.6,8.9
31.0,192.0,185.3,180.7,186.0,5.7
31.25,191.3,180.5,180.6,184.1,6.2
31.5,187.8,178.2,175.2,180.4,6.6
31.75,186.9,180.6,178.9,182.1,4.2
32.0,184.3,179.2,173.7,179.1,5.3
32.25,186.4,177.9,169.3,177.9,8.6
32.5,182.6,174.3,171.1,176.0,5.9
32.75,180.4,174.9,171.5,175.6,4.5
33.0,181.6,170.9,166.7,173.1,7.7
33.25,179.6,169.7,168.6,172.7,6.1
33.5,176.0,167.3,164.1,169.1,6.2
33.75,175.7,167.9,164.7,169.4,5.6
34.0,175.3,167.9,163.2,168.8,6.1
34.25,171.9,167.5,158.6,166.0,6.8
34.5,174.6,163.0,160.8,166.1,7.4
34.75,170.2,161.4,158.9,163.5,5.9
35.0,170.6,161.4,156.7,162.9,7.1
35.25,168.0,159.5,155.6,161.0,6.3
35.5,167.0,156.0,156.5,159.8,6.2
35.75,166.7,155.8,152.8,158.4,7.4
36.0,165.9,154.5,150.3,156.9,8.1
36.25,164.4,155.2,152.7,157.5,6.1
36.5,166.4,153.5,149.2,156.4,9.0
36.75,165.5,151.6,149.2,155.4,8.8
37.0,163.0,149.7,148.3,153.7,8.1
37.25,160.3,151.4,147.3,153.0,6.6
37.5,160.0,148.9,147.7,152.2,6.8
37.75,155.5,147.1,145.6,149.4,5.4
38.0,158.8,145.8,145.4,150.0,7.6
38.25,155.7,147.8,144.8,149.4,5.7
38.5,157.1,145.1,146.3,149.5,6.6
38.75,156.4,147.1,144.1,149.2,6.4
39.0,154.4,143.0,144.3,147.2,6.2
39.25,155.4,141.8,143.9,147.0,7.3
39.5,155.4,141.9,142.9,146.7,7.5
39.75,152.1,139.1,141.3,144.2,7.0
40.0,155.0,138.6,140.9,144.8,8.9
40.25,151.9,135.7,136.6,141.4,9.1
40.5,150.9,135.3,138.0,141.4,8.4
40.75,149.4,135.6,136.7,140.6,7.7
41.0,152.1,135.0,135.1,140.7,9.8
41.25,147.7,132.7,135.3,138.6,8.0
41.5,149.2,134.3,133.2,138.9,8.9
41.75,146.3,132.0,132.4,136.9,8.1
42.0,145.0,130.2,132.4,135.9,8.0
42.25,146.4,131.2,128.2,135.3,9.8
42.5,147.5,129.5,128.1,135.0,10.8
42.75,146.8,129.0,127.9,134.6,10.6
43.0,143.3,130.5,127.5,133.8,8.4
43.25,141.9,128.1,124.9,131.6,9.0
43.5,142.2,126.8,126.3,131.8,9.1
43.75,143.1,125.8,125.1,131.4,10.2
44.0,141.8,127.4,124.3,131.2,9.3
44.25,141.8,125.0,122.5,129.8,10.5
44.5,138.8,125.6,122.1,128.8,8.8
44.75,139.6,123.2,122.8,128.5,9.6
45.0,138.2,123.6,121.5,127.8,9.1
45.25,138.4,124.4,122.7,128.5,8.6
45.5,138.7,123.2,121.4,127.8,9.5
45.75,136.6,123.3,120.6,126.8,8.6
46.0,136.1,120.5,119.8,125.5,9.2
46.25,134.0,121.7,119.9,125.2,7.7
46.5,135.1,118.8,118.1,124.0,9.6
46.75,136.8,118.7,120.4,125.3,10.0
47.0,135.2,118.0,118.6,124.0,9.8
47.25,134.3,117.4,117.5,123.1,9.7
47.5,134.9,116.6,119.7,123.8,9.8
47.75,133.9,114.9,116.0,121.6,10.6
48.0,131.7,114.5,117.3,121.1,9.2
48.25,133.1,116.0,117.6,122.2,9.4
48.5,134.0,115.0,117.3,122.1,10.4
48.75,130.4,114.9,115.6,120.3,8.8
49.0,130.9,113.0,114.5,119.4,9.9
49.25,130.4,114.3,113.4,119.3,9.6
49.5,129.6,111.1,114.5,118.4,9.8
49.75,130.1,111.1,113.5,118.2,10.4
50.0,128.4,110.9,113.6,117.7,9.4
50.25,129.6,109.4,113.8,117.6,10.6
50.5,126.9,110.1,114.1,117.0,8.8
50.75,125.4,107.6,113.3,115.5,9.0
51.0,126.0,111.5,113.3,116.9,7.9
51.25,126.2,108.7,114.4,116.5,8.9
51.5,124.7,108.4,111.4,114.8,8.7
51.75,124.7,107.1,111.9,114.6,9.1
52.0,125.3,108.4,110.8,114.8,9.2
52.25,124.6,105.9,109.4,113.3,9.9
52.5,122.7,106.2,109.7,112.9,8.7
52.75,123.1,104.5,110.3,112.6,9.5
53.0,124.9,105.3,108.5,112.9,10.5
53.25,122.4,103.5,106.4,110.8,10.2
53.5,122.9,102.2,105.6,110.2,11.1
53.75,122.3,104.0,105.7,110.7,10.1
54.0,122.4,101.6,107.0,110.3,10.8
54.25,121.7,102.6,105.4,109.9,10.3
54.5,122.5,101.6,105.9,110.0,11.1
54.75,121.9,101.6,104.4,109.3,11.0
55.0,121.7,101.3,105.9,109.6,10.7
55.25,120.8,100.4,105.0,108.7,10.7
55.5,121.6,101.2,105.7,109.5,10.7
55.75,119.0,101.3,105.2,108.5,9.3
56.0,122.9,99.8,104.2,109.0,12.3
56.25,121.2,99.4,103.6,108.1,11.5
56.5,119.3,98.4,104.9,107.5,10.7
56.75,119.2,98.8,103.7,107.2,10.6
57.0,118.3,98.1,103.3,106.5,10.5
57.25,119.5,97.3,103.9,106.9,11.4
57.5,117.4,97.0,102.8,105.8,10.5
57.75,115.5,97.0,102.9,105.1,9.4
58.0,116.2,96.1,102.9,105.1,10.3
58.25,115.9,96.4,101.7,104.7,10.0
58.5,116.5,96.3,102.1,105.0,10.4
58.75,117.0,94.8,103.0,104.9,11.2
59.0,115.2,94.8,103.1,104.4,10.3
59.25,114.2,94.7,101.1,103.3,9.9
59.5,114.9,95.9,100.7,103.8,9.9
59.75,114.7,93.8,99.8,102.8,10.8
60.0,114.9,94.4,102.0,103.8,10.4
60.25,114.4,94.2,100.4,103.0,10.4
60.5,112.9,92.7,100.7,102.1,10.2
60.75,113.8,92.5,99.4,101.9,10.9
61.0,113.1,91.4,99.2,101.2,11.0
61.25,112.8,92.9,99.3,101.6,10.2
61.5,113.1,90.6,99.9,101.2,11.3
61.75,111.5,90.3,98.7,100.2,10.7
62.0,111.9,90.9,96.6,99.8,10.9
62.25,110.3,90.9,97.9,99.7,9.8
62.5,110.4,91.2,96.6,99.4,9.9
62.75,110.2,89.2,97.8,99.1,10.5
63.0,110.8,91.4,97.6,99.9,9.9
63.25,111.1,89.8,95.8,98.9,11.0
63.5,110.0,89.8,96.2,98.7,10.3
63.75,109.9,88.9,96.8,98.5,10.6
64.0,108.3,88.1,96.1,97.5,10.2
64.25,109.5,86.8,96.6,97.6,11.4
64.5,110.9,88.3,94.3,97.8,11.7
64.75,109.0,88.2,96.0,97.7,10.5
65.0,108.4,88.7,95.3,97.4,10.0
65.25,108.5,88.6,95.8,97.6,10.1
65.5,107.5,88.6,93.8,96.6,9.7
65.75,108.0,88.4,94.5,96.9,10.0
66.0,107.7,87.7,93.7,96.4,10.3
66.25,106.4,87.7,93.5,95.8,9.6
66.5,107.5,86.5,93.1,95.7,10.8
66.75,108.0,86.8,93.8,96.2,10.8
67.0,105.8,86.8,95.0,95.9,9.5
67.25,106.0,87.0,93.4,95.5,9.7
67.5,104.3,88.0,93.3,95.2,8.3
67.75,106.5,88.2,94.4,96.4,9.3
68.0,105.5,87.5,93.3,95.4,9.1
68.25,103.9,87.1,93.9,95.0,8.5
68.5,104.9,87.1,92.6,94.9,9.2
68.75,104.9,88.6,94.3,95.9,8.3
69.0,104.6,86.2,93.1,94.7,9.3
69.25,103.0,87.1,93.8,94.6,8.0
69.5,102.3,87.2,92.8,94.1,7.6
69.75,103.0,87.1,93.3,94.5,8.0
70.0,101.9,85.5,92.2,93.2,8.3
70.25,101.7,86.3,91.8,93.3,7.8
70.5,100.9,86.4,92.4,93.3,7.3
70.75,100.8,86.9,91.8,93.2,7.0
71.0,100.1,87.0,91.3,92.8,6.7
71.25,98.8,87.0,89.9,91.9,6.2
71.5,100.2,86.5,89.8,92.2,7.1
71.75,99.6,85.9,90.6,92.1,6.9
72.0,99.8,85.9,91.1,92.3,7.0
72.25,98.1,86.0,91.6,91.9,6.0
72.5,96.7,86.7,89.8,91.1,5.1
72.75,98.2,84.7,90.5,91.2,6.8
73.0,97.5,86.3,89.2,91.0,5.8
73.25,97.4,86.0,89.8,91.1,5.8
73.5,98.6,84.4,92.0,91.7,7.1
73.75,97.4,85.4,91.0,91.2,6.0
74.0,98.3,84.8,90.1,91.1,6.8
74.25,95.7,83.9,90.1,89.9,5.9
74.5,96.5,83.6,89.9,90.0,6.5
74.75,95.6,84.3,90.1,90.0,5.7
75.0,96.0,83.9,90.5,90.1,6.1
75.25,97.4,84.1,90.8,90.8,6.6
75.5,95.6,82.2,88.0,88.6,6.7
75.75,95.2,83.0,89.5,89.2,6.1
76.0,95.5,83.0,90.2,89.6,6.3
76.25,95.8,84.3,89.0,89.7,5.8
76.5,94.3,84.9,88.8,89.3,4.7
76.75,95.1,84.5,89.0,89.5,5.3
77.0,95.0,82.9,89.5,89.1,6.1
77.25,96.0,82.5,88.7,89.1,6.8
77.5,93.8,82.6,88.5,88.3,5.6
77.75,93.6,81.4,89.4,88.1,6.2
78.0,95.1,81.5,88.0,88.2,6.8
78.25,93.5,81.7,86.8,87.3,5.9
78.5,94.4,81.4,88.4,88.1,6.5
78.75,93.3,81.3,87.3,87.3,6.0
79.0,94.3,80.7,88.9,87.9,6.8
79.25,94.2,81.3,86.5,87.4,6.5
79.5,92.2,80.6,87.7,86.8,5.9
79.75,93.3,80.9,86.6,86.9,6.2
80.0,92.3,80.5,85.8,86.2,5.9
80.25,92.5,79.8,84.9,85.7,6.4
80.5,93.0,78.3,84.8,85.4,7.3
80.75,91.4,79.6,85.5,85.5,5.9
81.0,92.3,80.7,85.4,86.1,5.8
81.25,94.0,80.3,83.6,86.0,7.2
81.5,91.7,78.7,85.1,85.2,6.5
81.75,91.6,77.7,84.5,84.6,6.9
82.0,91.9,78.8,85.6,85.4,6.6
82.25,91.2,79.1,85.1,85.2,6.0
82.5,90.9,76.6,85.0,84.2,7.2
82.75,90.6,78.6,85.0,84.7,6.0
83.0,90.0,77.5,84.3,83.9,6.3
83.25,91.6,77.8,86.6,85.4,7.0
83.5,90.9,76.8,86.4,84.7,7.2
83.75,90.2,78.3,85.0,84.5,6.0
84.0,91.1,78.7,84.3,84.7,6.2
84.25,89.7,77.3,85.6,84.2,6.3
84.5,89.5,78.2,84.8,84.2,5.7
84.75,88.8,77.1,85.0,83.7,6.0
85.0,88.7,76.3,85.5,83.5,6.5
85.25,90.1,77.7,84.5,84.1,6.2
85.5,88.4,76.6,85.2,83.4,6.1
85.75,88.4,77.7,86.1,84.1,5.6
86.0,88.3,79.1,84.8,84.1,4.6
86.25,88.5,78.4,84.4,83.8,5.1
86.5,87.4,78.8,85.6,83.9,4.5
86.75,88.0,77.5,84.5,83.4,5.4
87.0,87.7,79.3,83.8,83.6,4.2
87.25,86.7,78.5,83.7,82.9,4.1
87.5,87.6,76.7,85.4,83.2,5.8
87.75,87.6,77.4,84.4,83.1,5.2
88.0,88.5,76.3,84.0,82.9,6.2
88.25,86.8,78.8,83.8,83.2,4.0
88.5,86.3,77.9,85.0,83.1,4.5
88.75,86.3,77.6,83.4,82.4,4.4
89.0,86.6,76.4,84.0,82.3,5.3
89.25,86.4,76.7,83.9,82.3,5.0
89.5,86.6,77.2,82.6,82.1,4.7
89.75,86.5,78.2,84.2,83.0,4.3
90.0,86.6,75.7,83.4,81.9,5.6
90.25,85.8,76.2,81.8,81.2,4.8
90.5,85.6,76.6,83.1,81.8,4.6
90.75,85.1,76.0,82.6,81.2,4.7
91.0,85.3,76.5,82.4,81.4,4.5
91.25,84.9,75.7,81.9,80.8,4.7
91.5,86.3,75.8,82.2,81.4,5.3
91.75,84.9,75.8,82.8,81.2,4.8
92.0,84.8,75.6,82.4,80.9,4.8
92.25,85.1,75.5,82.6,81.1,5.0
92.5,84.3,75.2,83.6,81.0,5.0
92.75,84.7,75.1,83.4,81.1,5.2
93.0,85.4,74.5,81.6,80.5,5.5
93.25,84.9,75.1,81.8,80.6,5.0
93.5,84.5,73.7,81.2,79.8,5.5
93.75,84.2,73.5,81.1,79.6,5.5
94.0,84.6,73.8,81.3,79.9,5.5
94.25,84.9,72.7,80.6,79.4,6.2
94.5,85.1,73.5,80.8,79.8,5.8
94.75,83.8,73.3,79.6,78.9,5.3
95.0,84.8,72.4,79.8,79.0,6.2
95.25,82.9,72.3,80.9,78.7,5.6
95.5,85.1,72.8,81.0,79.7,6.3
95.75,83.9,72.5,79.8,78.8,5.8
96.0,85.1,74.1,78.8,79.3,5.5
96.25,83.4,73.7,79.0,78.7,4.9
96.5,84.7,72.4,80.0,79.0,6.2
96.75,83.5,72.8,79.5,78.6,5.4
97.0,83.6,71.9,79.7,78.4,5.9
97.25,84.3,73.1,78.4,78.6,5.6
97.5,83.0,73.1,78.5,78.2,5.0
97.75,83.6,73.1,78.4,78.4,5.3
98.0,83.2,71.3,79.2,77.9,6.1
98.25,84.4,72.8,79.0,78.7,5.8
98.5,83.3,71.5,76.8,77.2,5.9
98.75,83.6,71.7,78.4,77.9,6.0
99.0,84.0,71.9,76.6,77.5,6.1
99.25,82.6,72.0,79.1,77.9,5.4
99.5,82.8,72.0,78.7,77.8,5.5
99.75,84.4,72.3,78.9,78.5,6.1
100.0,81.4,72.2,77.4,77.0,4.6
100.25,82.9,70.8,77.9,77.2,6.1
100.5,83.2,71.3,77.0,77.2,6.0
100.75,82.5,72.0,77.3,77.3,5.2
101.0,82.4,71.2,77.2,76.9,5.6
101.25,82.2,70.3,76.9,76.5,6.0
101.5,82.3,70.7,77.6,76.9,5.8
101.75,81.9,71.0,76.3,76.4,5.4
102.0,82.7,70.5,76.7,76.6,6.1
102.25,81.5,71.5,76.4,76.5,5.0
102.5,81.9,71.1,77.5,76.8,5.5
102.75,80.6,71.0,78.5,76.7,5.1
103.0,82.0,71.1,75.8,76.3,5.5
103.25,82.0,71.0,77.0,76.7,5.5
103.5,82.6,70.4,76.6,76.5,6.1
103.75,82.8,71.1,76.9,76.9,5.9
104.0,81.7,70.3,76.0,76.0,5.7
104.25,81.9,70.4,75.6,76.0,5.7
104.5,82.3,69.9,75.3,75.9,6.2
104.75,81.8,70.4,75.1,75.8,5.7
105.0,81.6,70.7,75.7,76.0,5.4
105.25,80.1,70.7,75.3,75.4,4.7
105.5,82.3,70.3,74.8,75.8,6.1
105.75,80.2,70.1,74.5,74.9,5.1
106.0,80.8,69.1,74.8,74.9,5.9
106.25,80.7,70.1,74.2,75.0,5.3
106.5,80.3,69.7,73.9,74.6,5.3
106.75,81.3,70.7,74.5,75.5,5.4
107.0,79.5,68.9,74.3,74.2,5.3
107.25,81.1,68.5,73.4,74.4,6.3
107.5,80.0,69.2,74.4,74.5,5.4
107.75,81.2,70.1,74.2,75.2,5.6
108.0,80.3,69.0,76.1,75.1,5.7
108.25,79.4,67.0,74.1,73.5,6.2
108.5,78.5,69.6,74.4,74.2,4.4
108.75,80.6,68.8,74.3,74.6,5.9
109.0,79.0,68.4,73.3,73.6,5.3
109.25,77.6,68.4,74.6,73.5,4.7
109.5,78.2,68.4,73.3,73.3,4.9
109.75,78.1,68.5,74.2,73.6,4.8
110.0,77.9,67.5,73.0,72.8,5.2
110.25,78.6,67.6,72.4,72.9,5.5
110.5,78.8,67.4,73.5,73.3,5.7
110.75,77.6,68.2,72.3,72.7,4.7
111.0,80.2,67.6,72.9,73.6,6.4
111.25,77.9,68.3,71.9,72.7,4.8
111.5,78.8,68.2,72.7,73.2,5.3
111.75,78.7,69.1,72.6,73.5,4.9
112.0,77.8,67.7,72.4,72.6,5.1
112.25,77.1,67.7,73.1,72.6,4.8
112.5,77.6,67.4,72.3,72.4,5.1
112.75,77.0,67.5,71.9,72.1,4.8
113.0,77.8,66.7,72.2,72.2,5.5
113.25,77.4,67.2,72.0,72.2,5.1
113.5,77.6,67.1,72.1,72.3,5.2
113.75,77.5,68.1,71.5,72.4,4.8
114.0,76.9,68.4,71.4,72.2,4.3
114.25,77.1,68.1,70.2,71.8,4.7
114.5,76.8,66.3,71.2,71.4,5.2
114.75,76.5,68.1,70.5,71.7,4.3
115.0,75.9,67.5,70.3,71.2,4.3
115.25,76.9,67.0,71.7,71.9,5.0
115.5,77.3,67.2,69.9,71.5,5.2
115.75,76.8,66.6,71.3,71.6,5.1
116.0,76.8,66.7,70.7,71.4,5.1
116.25,77.1,67.6,69.7,71.5,5.0
116.5,75.5,66.8,69.8,70.7,4.4
116.75,75.8,67.3,70.4,71.2,4.3
117.0,77.2,66.8,70.8,71.6,5.2
117.25,74.7,66.7,69.6,70.3,4.1
117.5,76.5,66.3,71.2,71.3,5.1
117.75,75.5,66.8,69.6,70.6,4.4
118.0,75.2,66.0,71.2,70.8,4.6
118.25,75.5,66.4,72.0,71.3,4.6
118.5,75.6,66.1,71.6,71.1,4.8
118.75,76.4,66.9,70.9,71.4,4.8
119.0,76.4,65.4,71.5,71.1,5.5
119.25,76.1,65.2,71.6,71.0,5.5
119.5,76.1,65.8,71.7,71.2,5.2
119.75,75.9,66.3,72.4,71.5,4.8
120.0,77.3,66.1,71.1,71.5,5.6
120.25,75.7,65.8,71.9,71.1,5.0
120.5,78.4,66.0,71.3,71.9,6.2
120.75,76.5,65.1,71.5,71.0,5.7
121.0,75.2,65.9,71.4,70.8,4.7
121.25,77.4,66.8,73.4,72.6,5.4
121.5,77.3,65.4,71.6,71.4,6.0
121.75,78.1,66.0,71.7,71.9,6.0
122.0,75.9,65.6,72.1,71.2,5.2
122.25,77.7,65.4,72.5,71.9,6.1
122.5,76.5,65.0,72.8,71.4,5.9
122.75,78.3,65.2,71.6,71.7,6.5
123.0,76.5,65.9,71.7,71.4,5.3
123.25,76.1,66.8,70.5,71.1,4.7
123.5,76.4,65.0,70.9,70.7,5.7
123.75,75.9,65.7,71.1,70.9,5.1
124.0,77.1,64.6,70.7,70.8,6.3
124.25,76.1,65.0,70.6,70.6,5.6
124.5,76.7,65.2,70.4,70.8,5.8
124.75,76.6,64.7,69.9,70.4,6.0
125.0,76.7,66.2,70.2,71.0,5.3
125.25,75.1,65.4,69.5,70.0,4.9
125.5,76.9,65.2,69.2,70.4,5.9
125.75,74.4,65.6,69.7,69.9,4.4
126.0,75.9,65.9,68.3,70.1,5.2
126.25,75.8,66.7,68.6,70.4,4.8
126.5,76.4,65.7,68.5,70.2,5.6
126.75,75.8,65.5,69.2,70.2,5.2
127.0,75.5,65.7,69.2,70.1,5.0
127.25,75.4,65.6,69.6,70.2,4.9
127.5,76.2,65.4,68.6,70.1,5.6
127.75,75.5,65.8,69.6,70.3,4.9
128.0,75.2,65.0,68.4,69.5,5.2
128.25,74.9,65.6,67.8,69.5,4.9
128.5,75.5,66.0,68.2,69.9,5.0
128.75,74.9,65.7,68.3,69.6,4.8
129.0,74.4,65.6,68.8,69.6,4.5
129.25,73.8,66.5,68.4,69.5,3.8
129.5,74.8,66.0,67.7,69.5,4.7
129.75,74.2,65.9,68.1,69.4,4.3
130.0,75.2,65.9,67.7,69.6,4.9
130.25,74.1,64.3,68.3,68.9,4.9
130.5,74.8,65.9,68.3,69.7,4.6
130.75,73.7,64.8,67.6,68.7,4.6
131.0,74.0,65.7,67.4,69.0,4.4
131.25,72.8,65.8,68.2,68.9,3.6
131.5,74.6,64.6,68.9,69.4,5.0
131.75,73.3,64.6,67.5,68.5,4.4
132.0,74.4,64.5,68.2,69.0,5.0
132.25,73.8,64.7,68.1,68.9,4.6
132.5,74.1,64.7,68.6,69.1,4.7
132.75,73.3,63.0,66.8,67.7,5.2
133.0,73.9,64.4,68.1,68.8,4.8
133.25,73.6,64.4,68.1,68.7,4.6
133.5,72.7,64.4,68.3,68.5,4.2
133.75,72.7,63.6,67.5,67.9,4.6
134.0,72.9,64.0,67.2,68.0,4.5
134.25,72.3,64.6,67.6,68.2,3.9
134.5,72.3,64.8,69.1,68.7,3.7
134.75,72.7,63.2,67.8,67.9,4.7
135.0,72.8,63.9,66.4,67.7,4.6
135.25,72.9,64.1,66.9,68.0,4.5
135.5,71.2,63.1,67.2,67.2,4.0
135.75,71.5,62.7,67.4,67.2,4.4
136.0,73.1,62.9,67.5,67.9,5.1
136.25,72.9,63.7,67.7,68.1,4.6
136.5,72.0,61.9,67.6,67.1,5.1
136.75,72.1,63.2,67.7,67.6,4.4
137.0,72.1,63.2,66.9,67.4,4.5
137.25,71.3,63.0,68.5,67.6,4.2
137.5,71.3,63.4,67.8,67.5,3.9
137.75,72.2,63.4,66.6,67.4,4.5
138.0,72.5,62.5,66.8,67.3,5.0
138.25,73.1,63.4,66.5,67.6,5.0
138.5,72.4,63.4,66.3,67.4,4.6
138.75,71.1,62.3,67.4,66.9,4.4
139.0,72.0,62.9,66.7,67.2,4.6
139.25,72.4,62.6,66.5,67.2,4.9
139.5,72.2,63.2,66.9,67.4,4.5
139.75,72.4,62.3,65.8,66.8,5.1
140.0,71.5,62.4,66.4,66.8,4.5
140.25,72.8,62.1,65.8,66.9,5.5
140.5,71.1,62.8,65.2,66.4,4.3
140.75,70.4,62.5,66.4,66.4,4.0
141.0,70.6,62.6,68.4,67.2,4.2
141.25,70.8,62.5,66.3,66.5,4.2
141.5,71.3,62.4,65.7,66.5,4.5
141.75,71.1,62.8,65.7,66.5,4.2
142.0,70.8,63.1,66.3,66.7,3.9
142.25,68.5,62.2,66.8,65.8,3.3
142.5,69.2,63.7,65.3,66.0,2.9
142.75,71.2,62.6,65.8,66.5,4.3
143.0,70.9,61.5,65.7,66.0,4.7
143.25,70.5,62.8,64.5,65.9,4.0
143.5,69.5,61.9,66.2,65.9,3.8
143.75,70.9,62.5,64.5,66.0,4.4
144.0,69.2,62.6,64.6,65.5,3.4
144.25,69.6,62.9,65.5,66.0,3.4
144.5,70.5,61.1,64.2,65.3,4.8
144.75,69.8,62.3,65.3,65.8,3.8
145.0,70.0,62.0,64.5,65.5,4.1
145.25,70.4,61.3,65.1,65.6,4.6
145.5,69.7,61.4,64.8,65.3,4.2
145.75,69.9,62.1,65.1,65.7,3.9
146.0,68.4,62.6,64.6,65.2,3.0
146.25,70.4,62.8,64.0,65.7,4.1
146.5,69.2,62.2,64.6,65.3,3.6
146.75,69.1,61.4,64.6,65.0,3.9
147.0,68.5,61.1,64.7,64.8,3.7
147.25,69.0,62.2,64.6,65.3,3.4
147.5,68.3,61.7,64.4,64.8,3.3
147.75,67.9,61.6,63.5,64.3,3.2
148.0,68.0,61.4,63.6,64.3,3.3
148.25,67.7,61.7,64.2,64.5,3.0
148.5,67.0,61.5,63.9,64.2,2.8
148.75,66.6,60.5,65.2,64.1,3.2
149.0,67.1,62.8,64.3,64.8,2.2
149.25,67.8,61.3,65.0,64.7,3.3
149.5,67.4,61.8,64.2,64.5,2.8
149.75,66.0,60.9,63.6,63.5,2.6
150.0,66.8,60.6,63.7,63.7,3.1
150.25,67.5,61.5,63.7,64.2,3.0
150.5,66.8,61.5,64.4,64.2,2.6
150.75,66.8,61.2,64.2,64.1,2.8
151.0,66.8,61.6,63.4,63.9,2.7
151.25,67.3,61.0,64.2,64.2,3.2
151.5,66.2,61.8,64.2,64.1,2.2
151.75,66.9,60.4,63.3,63.6,3.3
152.0,67.5,61.5,63.9,64.3,3.0
152.25,65.9,60.4,63.5,63.3,2.8
152.5,67.1,61.2,63.8,64.1,3.0
152.75,66.3,60.5,63.7,63.5,2.9
153.0,67.2,60.6,63.5,63.8,3.3
153.25,66.5,60.8,64.6,64.0,2.9
153.5,67.0,60.8,64.4,64.0,3.1
153.75,67.3,60.7,63.9,64.0,3.3
154.0,68.2,59.9,64.8,64.3,4.2
154.25,68.6,60.0,64.5,64.4,4.3
154.5,67.5,60.7,64.3,64.2,3.4
154.75,67.2,61.5,64.9,64.5,2.8
155.0,68.0,60.5,64.5,64.3,3.8
155.25,68.3,60.2,63.9,64.1,4.1
155.5,67.8,61.0,63.0,64.0,3.5
155.75,68.6,60.5,63.4,64.2,4.1
156.0,68.1,60.0,64.5,64.2,4.0
156.25,67.8,60.8,64.5,64.3,3.5
156.5,67.0,59.7,64.0,63.6,3.7
156.75,68.6,59.8,63.8,64.1,4.4
157.0,69.3,60.3,64.1,64.6,4.5
157.25,68.4,60.5,63.6,64.2,4.0
157.5,68.8,60.8,63.3,64.3,4.1
157.75,68.4,60.3,63.1,63.9,4.1
158.0,68.2,60.6,62.8,63.9,3.9
158.25,68.1,59.6,63.6,63.8,4.2
158.5,68.5,60.7,64.6,64.6,3.9
158.75,68.9,60.5,63.4,64.3,4.3
159.0,68.3,59.8,63.4,63.8,4.3
159.25,69.7,60.0,63.4,64.4,4.9
159.5,69.3,60.0,63.7,64.4,4.7
159.75,69.7,61.1,63.2,64.6,4.5
160.0,68.6,60.1,63.9,64.2,4.3
160.25,70.0,59.3,64.0,64.4,5.3
160.5,69.6,60.0,63.9,64.5,4.8
160.75,69.5,60.2,63.5,64.4,4.8
161.0,68.9,61.0,63.5,64.4,4.1
161.25,70.6,59.5,63.7,64.6,5.6
161.5,70.5,60.8,62.8,64.7,5.1
161.75,70.1,60.9,62.6,64.5,4.9
162.0,69.2,60.3,63.4,64.3,4.5
162.25,69.8,59.7,64.5,64.7,5.0
162.5,69.4,60.6,63.7,64.5,4.4
162.75,70.1,60.9,62.4,64.5,4.9
163.0,70.0,60.5,63.0,64.5,4.9
163.25,69.2,60.6,62.8,64.2,4.5
163.5,69.5,60.9,63.0,64.5,4.4
163.75,68.9,59.9,63.2,64.0,4.6
164.0,69.2,59.4,62.3,63.6,5.0
164.25,70.0,59.6,63.7,64.4,5.3
164.5,68.4,60.0,63.2,63.9,4.2
164.75,69.2,59.8,63.6,64.2,4.7
165.0,68.4,59.6,63.4,63.8,4.4
165.25,68.3,60.1,62.7,63.7,4.2
165.5,68.4,59.1,62.6,63.4,4.7
165.75,67.8,60.0,63.1,63.6,3.9
166.0,67.6,59.2,62.4,63.1,4.2
166.25,68.6,58.9,62.6,63.4,4.9
166.5,68.3,59.1,62.2,63.2,4.7
166.75,69.1,58.6,62.1,63.3,5.3
167.0,68.8,58.2,61.9,63.0,5.4
167.25,67.5,58.3,62.7,62.8,4.6
167.5,67.7,58.6,62.2,62.8,4.6
167.75,67.0,58.6,61.5,62.3,4.3
168.0,66.4,60.2,62.2,62.9,3.2
168.25,67.9,60.3,61.3,63.2,4.1
168.5,68.1,59.1,63.0,63.4,4.5
168.75,67.6,58.9,61.1,62.5,4.5
169.0,66.5,59.8,61.9,62.7,3.4
169.25,67.1,59.3,60.9,62.5,4.1
169.5,66.7,59.1,61.5,62.4,3.9
169.75,67.4,58.9,61.4,62.5,4.4
170.0,67.7,58.4,61.0,62.3,4.8
170.25,68.5,58.6,61.0,62.7,5.2
170.5,67.6,59.1,60.1,62.3,4.6
170.75,67.5,58.7,60.8,62.3,4.6
171.0,66.4,59.2,60.8,62.2,3.8
171.25,66.8,58.2,61.0,62.0,4.4
171.5,67.5,59.1,61.2,62.6,4.4
171.75,66.5,58.0,61.0,61.9,4.3
172.0,66.6,58.7,61.7,62.3,4.0
172.25,67.2,57.1,60.9,61.8,5.1
172.5,66.3,57.9,60.6,61.6,4.3
172.75,66.9,58.1,61.3,62.1,4.4
173.0,66.3,58.5,60.7,61.8,4.0
173.25,65.6,57.3,61.0,61.3,4.2
173.5,65.7,57.3,60.9,61.3,4.3
173.75,66.2,57.4,60.9,61.5,4.4
174.0,66.3,57.2,62.1,61.9,4.5
174.25,66.0,57.1,61.4,61.5,4.4
174.5,65.2,56.9,60.4,60.8,4.2
174.75,65.2,58.0,59.9,61.0,3.7
175.0,65.3,56.9,61.0,61.1,4.2
175.25,65.0,57.3,60.7,61.0,3.8
175.5,65.7,56.2,60.4,60.8,4.8
175.75,66.4,56.6,60.0,61.0,4.9
176.0,65.3,56.7,61.6,61.2,4.3
176.25,65.8,58.2,59.3,61.1,4.1
176.5,66.1,57.2,59.8,61.0,4.6
176.75,65.9,56.7,59.6,60.7,4.7
177.0,65.6,56.1,60.6,60.8,4.7
177.25,65.6,56.5,59.6,60.5,4.6
177.5,65.9,56.8,59.7,60.8,4.7
177.75,65.3,57.4,61.2,61.3,4.0
178.0,65.5,57.1,60.1,60.9,4.2
178.25,67.2,55.6,59.0,60.6,6.0
178.5,66.4,57.2,59.1,60.9,4.9
178.75,67.1,56.7,60.1,61.3,5.3
179.0,66.3,57.0,60.6,61.3,4.7
179.25,65.5,56.8,59.9,60.7,4.4
179.5,66.4,56.8,60.2,61.1,4.9
179.75,66.9,56.8,60.7,61.5,5.1
180.0,66.2,55.7,59.2,60.4,5.4
180.25,66.6,56.3,60.3,61.0,5.2
180.5,65.5,56.2,59.9,60.5,4.7
180.75,66.0,56.3,59.9,60.7,4.9
181.0,65.6,55.2,59.8,60.2,5.2
181.25,66.2,55.8,60.7,60.9,5.2
181.5,65.6,55.3,60.2,60.4,5.1
181.75,65.3,56.2,59.4,60.3,4.6
182.0,65.1,56.2,60.5,60.6,4.5
182.25,65.4,55.9,60.9,60.8,4.8
182.5,65.1,55.5,60.0,60.2,4.8
182.75,64.8,56.0,60.4,60.4,4.4
183.0,64.0,55.7,59.6,59.8,4.1
183.25,64.4,54.9,59.5,59.6,4.7
183.5,65.1,55.5,59.6,60.1,4.8
183.75,63.4,56.8,59.1,59.8,3.3
184.0,64.1,56.3,59.2,59.9,4.0
184.25,63.1,56.3,59.3,59.6,3.4
184.5,63.3,55.4,59.3,59.3,3.9
184.75,63.0,57.4,60.4,60.3,2.8
185.0,63.2,56.6,59.8,59.8,3.3
185.25,62.9,57.1,58.6,59.5,3.0
185.5,62.6,55.8,58.9,59.1,3.4
185.75,62.6,56.4,59.4,59.5,3.1
186.0,62.5,56.7,59.9,59.7,2.9
186.25,62.8,57.6,59.3,59.9,2.6
186.5,63.0,57.3,59.2,59.8,2.9
186.75,62.0,56.7,59.1,59.2,2.7
187.0,62.2,56.7,58.6,59.1,2.8
187.25,62.6,57.2,59.1,59.6,2.7
187.5,63.0,56.7,58.5,59.4,3.2
187.75,62.7,56.8,59.1,59.5,2.9
188.0,62.1,56.2,58.7,59.0,3.0
188.25,63.1,57.2,57.8,59.4,3.2
188.5,63.8,55.8,58.2,59.3,4.1
188.75,62.2,57.2,58.3,59.2,2.6
189.0,63.0,56.2,58.2,59.1,3.5
189.25,62.6,55.4,58.6,58.9,3.6
189.5,62.9,55.5,58.4,58.9,3.8
189.75,61.9,57.3,58.9,59.4,2.3
190.0,60.9,56.5,58.5,58.6,2.2
190.25,61.7,55.8,57.6,58.4,3.1
190.5,62.1,55.9,58.0,58.7,3.2
190.75,61.5,56.4,59.3,59.0,2.6
191.0,61.9,56.2,58.4,58.8,2.9
191.25,60.5,55.7,57.5,57.9,2.4
191.5,60.4,55.6,57.7,57.9,2.4
191.75,61.1,56.5,57.5,58.3,2.4
192.0,60.2,55.8,57.0,57.6,2.3
192.25,59.6,55.5,57.3,57.4,2.1
192.5,59.9,56.3,58.3,58.2,1.8
192.75,60.2,56.4,58.2,58.3,1.9
193.0,59.8,55.7,57.8,57.8,2.0
193.25,60.6,56.2,56.9,57.9,2.4
193.5,60.4,55.9,57.5,57.9,2.3
193.75,59.9,56.0,56.9,57.6,2.0
194.0,59.9,55.4,57.0,57.4,2.3
194.25,60.7,56.5,58.1,58.5,2.1
194.5,60.2,56.2,57.6,58.0,2.0
194.75,59.9,56.5,57.8,58.1,1.7
195.0,59.5,55.0,57.5,57.3,2.3
195.25,59.0,56.6,57.3,57.6,1.2
195.5,60.4,54.8,58.5,57.9,2.9
195.75,60.0,55.0,58.7,57.9,2.6
196.0,59.7,55.3,57.7,57.6,2.2
196.25,60.6,55.2,56.9,57.5,2.8
196.5,60.5,54.3,57.5,57.5,3.1
196.75,60.7,56.2,58.6,58.5,2.3
197.0,60.1,55.6,57.5,57.7,2.2
197.25,61.5,55.0,58.0,58.1,3.3
197.5,60.7,54.7,58.1,57.8,3.0
197.75,61.4,54.7,58.1,58.1,3.3
198.0,61.3,55.3,59.2,58.6,3.0
198.25,61.5,55.0,59.9,58.8,3.4
198.5,61.1,54.9,58.6,58.2,3.1
198.75,60.8,54.4,59.3,58.2,3.4
199.0,61.2,55.4,60.1,58.9,3.1
199.25,62.2,55.7,59.1,59.0,3.3
199.5,61.2,55.5,59.6,58.7,3.0
199.75,60.4,54.8,60.3,58.5,3.2
200.0,61.1,55.3,59.1,58.5,2.9
200.25,60.6,55.9,60.0,58.8,2.6
200.5,59.9,55.3,58.8,58.0,2.4
200.75,60.5,55.4,59.4,58.4,2.7
201.0,60.1,55.2,58.8,58.0,2.6
201.25,60.2,55.7,60.0,58.6,2.5
201.5,59.9,55.0,59.7,58.2,2.8
201.75,59.6,54.0,59.5,57.7,3.2
202.0,60.9,54.7,59.9,58.5,3.3
202.25,59.5,55.2,59.7,58.1,2.5
202.5,59.4,54.4,59.1,57.6,2.8
202.75,59.0,53.9,58.6,57.1,2.9
203.0,58.7,53.6,58.9,57.1,3.0
203.25,58.8,54.9,59.3,57.7,2.4
203.5,59.9,54.4,58.6,57.7,2.9
203.75,59.1,54.2,58.3,57.2,2.7
204.0,58.9,53.5,58.4,56.9,3.0
204.25,59.3,53.8,58.6,57.2,3.0
204.5,58.8,54.0,58.5,57.1,2.7
204.75,59.2,53.3,57.4,56.7,3.0
205.0,59.9,53.2,58.3,57.1,3.5
205.25,58.4,53.2,57.5,56.4,2.7
205.5,58.7,53.7,58.1,56.8,2.8
205.75,58.5,53.4,58.6,56.8,3.0
206.0,58.5,53.3,57.1,56.3,2.7
206.25,58.8,53.9,57.5,56.7,2.5
206.5,58.2,53.5,57.8,56.5,2.6
206.75,57.9,53.0,57.1,56.0,2.6
207.0,58.5,52.7,57.6,56.2,3.1
207.25,58.3,52.7,57.4,56.1,3.0
207.5,57.6,53.8,57.2,56.2,2.1
207.75,58.1,53.1,57.7,56.3,2.8
208.0,59.3,52.9,57.2,56.5,3.3
208.25,58.1,53.7,57.6,56.4,2.4
208.5,57.8,52.8,57.6,56.1,2.8
208.75,58.6,52.9,57.6,56.4,3.0
209.0,59.1,53.0,57.3,56.4,3.1
209.25,56.8,52.8,56.5,55.4,2.2
209.5,57.5,53.0,57.2,55.9,2.5
209.75,57.9,52.9,56.9,55.9,2.6
210.0,57.4,52.9,57.0,55.8,2.5
210.25,57.5,53.6,57.6,56.3,2.3
210.5,58.0,53.1,57.7,56.2,2.7
210.75,59.2,52.6,57.5,56.4,3.4
211.0,58.5,51.8,57.8,56.0,3.7
211.25,58.1,52.6,58.4,56.4,3.3
211.5,57.0,51.8,57.2,55.4,3.0
211.75,57.7,51.0,56.9,55.2,3.6
212.0,57.9,51.5,56.8,55.4,3.4
212.25,58.3,51.9,56.9,55.7,3.3
212.5,57.9,51.6,58.5,56.0,3.8
212.75,57.8,51.3,57.9,55.6,3.8
213.0,57.7,50.3,58.6,55.5,4.6
213.25,57.1,51.0,56.6,54.9,3.4
213.5,57.8,51.1,57.9,55.6,3.9
213.75,57.9,51.7,57.6,55.8,3.5
214.0,57.2,51.0,57.5,55.2,3.7
214.25,57.3,50.7,57.5,55.2,3.9
214.5,57.0,51.0,57.0,55.0,3.5
214.75,57.4,50.2,57.4,55.0,4.2
215.0,57.0,51.7,57.5,55.4,3.2
215.25,57.8,51.1,56.7,55.2,3.6
215.5,56.5,50.7,57.8,55.0,3.8
215.75,56.4,50.5,57.4,54.8,3.7
216.0,56.3,50.4,57.4,54.7,3.8
216.25,57.1,52.0,56.8,55.3,2.9
216.5,56.2,50.7,57.0,54.6,3.4
216.75,56.2,51.2,57.4,54.9,3.3
217.0,56.1,51.2,57.2,54.8,3.2
217.25,56.3,51.1,58.3,55.2,3.8
217.5,56.2,51.2,56.9,54.8,3.1
217.75,56.1,50.9,56.1,54.4,3.0
218.0,54.2,51.2,57.5,54.3,3.2
218.25,55.2,51.5,57.5,54.7,3.0
218.5,56.3,51.2,57.5,55.0,3.3
218.75,55.6,51.7,57.3,54.8,2.9
219.0,55.3,51.1,57.9,54.8,3.4
219.25,53.9,50.6,57.0,53.8,3.2
219.5,55.8,50.1,57.2,54.4,3.7
219.75,55.0,51.1,58.0,54.7,3.5
220.0,54.9,51.6,57.4,54.6,2.9
220.25,54.9,51.3,57.7,54.7,3.2
220.5,54.9,51.9,58.2,55.0,3.2
220.75,54.5,51.4,57.6,54.5,3.1
221.0,55.0,50.7,56.6,54.1,3.1
221.25,54.8,50.7,57.2,54.2,3.3
221.5,55.4,50.2,56.9,54.2,3.5
221.75,54.4,50.6,56.6,53.9,3.1
222.0,54.0,50.1,56.2,53.4,3.1
222.25,54.4,49.8,56.5,53.6,3.5
222.5,54.5,50.2,56.5,53.7,3.3
222.75,54.8,48.8,55.9,53.2,3.8
223.0,54.0,49.8,56.3,53.4,3.3
223.25,54.1,49.1,56.2,53.1,3.7
223.5,54.8,49.6,55.0,53.1,3.1
223.75,54.2,48.5,56.6,53.1,4.2
224.0,54.8,49.5,56.0,53.5,3.5
224.25,54.2,48.6,56.4,53.1,4.0
224.5,54.3,48.9,54.9,52.7,3.3
224.75,54.0,49.0,55.8,53.0,3.6
225.0,53.3,49.5,55.2,52.7,2.9
225.25,53.1,49.3,55.7,52.7,3.2
225.5,53.5,47.6,54.7,51.9,3.8
225.75,53.1,48.1,56.0,52.4,4.0
226.0,52.7,49.0,56.0,52.6,3.5
226.25,53.7,49.2,54.9,52.6,3.0
226.5,53.6,49.0,56.1,52.9,3.6
226.75,53.0,48.9,55.7,52.5,3.4
227.0,52.5,48.3,55.3,52.0,3.5
227.25,52.9,48.4,55.1,52.1,3.4
227.5,52.4,48.5,54.8,51.9,3.2
227.75,51.8,48.7,55.0,51.8,3.2
228.0,52.6,49.3,55.6,52.5,3.1
228.25,52.4,48.5,55.4,52.1,3.4
228.5,53.0,49.1,55.4,52.5,3.2
228.75,52.9,48.5,54.9,52.1,3.3
229.0,52.4,47.7,55.8,52.0,4.0
229.25,53.1,48.9,55.7,52.6,3.4
229.5,53.1,49.1,55.2,52.5,3.1
229.75,52.7,48.9,56.2,52.6,3.6
230.0,52.0,48.8,55.8,52.2,3.5
230.25,52.7,48.6,56.1,52.5,3.7
230.5,52.3,49.4,55.5,52.4,3.0
230.75,53.1,48.9,55.9,52.6,3.5
231.0,52.9,48.9,56.6,52.8,3.8
231.25,52.8,48.7,56.3,52.6,3.8
231.5,52.8,49.2,55.9,52.7,3.4
231.75,52.3,49.9,56.5,52.9,3.3
232.0,52.1,48.6,56.2,52.3,3.8
232.25,52.4,50.0,56.1,52.8,3.1
232.5,52.3,49.4,55.6,52.5,3.1
232.75,53.0,50.0,56.9,53.3,3.5
233.0,52.7,49.4,56.0,52.7,3.3
233.25,53.2,49.3,56.1,52.9,3.4
233.5,52.2,49.7,55.7,52.5,3.0
233.75,52.3,49.7,56.9,53.0,3.6
234.0,52.7,50.7,55.7,53.0,2.5
234.25,52.9,50.4,56.0,53.1,2.8
234.5,52.7,50.3,54.8,52.6,2.3
234.75,52.4,50.4,55.0,52.6,2.3
235.0,52.3,49.7,56.5,52.8,3.5
235.25,52.3,50.0,55.7,52.7,2.9
235.5,52.8,49.7,55.1,52.6,2.7
235.75,52.7,50.2,55.5,52.8,2.6
236.0,53.4,50.8,55.5,53.2,2.4
236.25,52.5,49.5,55.2,52.4,2.8
236.5,52.5,50.3,55.5,52.8,2.6
236.75,52.8,50.1,55.2,52.7,2.6
237.0,52.9,49.7,54.5,52.4,2.4
237.25,53.1,50.0,54.7,52.6,2.4
237.5,52.5,50.0,54.8,52.4,2.4
237.75,52.7,49.7,55.1,52.5,2.7
238.0,52.1,49.8,54.7,52.2,2.5
238.25,53.0,49.7,54.1,52.3,2.3
238.5,52.5,49.4,54.3,52.1,2.5
238.75,52.8,49.8,54.1,52.2,2.2
239.0,53.5,49.5,54.1,52.4,2.5
239.25,53.0,50.1,54.8,52.6,2.4
239.5,52.6,49.9,54.5,52.3,2.3
239.75,52.0,50.0,54.9,52.3,2.5
240.0,52.3,49.9,54.8,52.4,2.5
240.25,53.0,49.0,54.1,52.0,2.7
240.5,52.6,48.9,53.8,51.8,2.5
240.75,52.4,49.3,54.0,51.9,2.4
241.0,52.5,49.1,54.1,51.9,2.6
241.25,51.6,48.7,54.4,51.6,2.8
241.5,52.1,48.8,54.1,51.6,2.7
241.75,52.2,48.3,54.7,51.7,3.3
242.0,51.5,48.3,54.6,51.5,3.2
242.25,52.4,49.4,54.8,52.2,2.7
242.5,50.9,48.3,54.7,51.3,3.2
242.75,51.6,49.0,54.3,51.7,2.7
243.0,51.6,48.4,53.9,51.3,2.8
243.25,51.8,48.1,53.6,51.2,2.8
243.5,51.4,48.8,54.0,51.4,2.6
243.75,51.9,49.1,54.0,51.7,2.5
244.0,50.8,48.2,53.8,50.9,2.8
244.25,50.6,48.7,54.5,51.3,3.0
244.5,51.0,48.5,53.9,51.1,2.7
244.75,50.7,48.0,54.4,51.0,3.2
245.0,51.4,47.6,53.7,50.9,3.1
245.25,51.1,47.9,54.2,51.1,3.2
245.5,50.6,47.9,54.6,51.0,3.3
245.75,51.1,47.8,55.0,51.3,3.6
246.0,50.2,47.7,54.3,50.7,3.3
246.25,50.5,48.5,53.4,50.8,2.5
246.5,50.8,47.6,54.4,50.9,3.4
246.75,51.3,47.8,53.7,50.9,2.9
247.0,49.9,47.4,54.4,50.6,3.5
247.25,49.4,48.0,54.2,50.5,3.2
247.5,50.6,48.2,53.7,50.8,2.8
247.75,50.1,48.1,54.1,50.8,3.1
248.0,50.3,47.6,53.6,50.5,3.0
248.25,49.9,47.7,53.9,50.5,3.1
248.5,49.9,48.5,53.7,50.7,2.7
248.75,50.4,47.9,53.5,50.6,2.8
249.0,49.3,48.2,54.5,50.7,3.4
249.25,50.4,47.8,53.5,50.6,2.9
249.5,50.2,48.0,54.2,50.8,3.1
249.75,50.1,47.8,53.3,50.4,2.7
250.0,50.1,47.7,53.9,50.5,3.1
250.25,49.9,47.8,53.1,50.3,2.6
250.5,49.2,47.8,52.6,49.9,2.4
250.75,49.8,49.3,53.3,50.8,2.2
251.0,49.4,48.1,53.3,50.3,2.7
251.25,49.2,48.2,53.9,50.4,3.1
251.5,49.1,48.4,52.0,49.8,1.9
251.75,49.9,49.1,52.7,50.6,1.9
252.0,49.9,48.1,53.4,50.5,2.7
252.25,49.8,48.1,52.6,50.2,2.3
252.5,48.7,48.8,53.2,50.2,2.6
252.75,48.3,48.5,52.5,49.8,2.4
253.0,48.7,48.5,51.4,49.5,1.6
253.25,49.5,48.3,52.0,49.9,1.9
253.5,49.1,47.9,51.3,49.4,1.7
253.75,48.8,48.8,52.5,50.0,2.1
254.0,48.4,47.8,52.4,49.5,2.5
254.25,48.2,47.8,52.0,49.3,2.3
254.5,49.2,47.7,52.0,49.6,2.2
254.75,48.5,47.7,52.2,49.5,2.4
255.0,48.9,48.4,52.5,49.9,2.3
255.25,47.7,48.4,52.2,49.4,2.4
255.5,48.7,47.3,51.7,49.2,2.2
255.75,48.5,47.6,51.5,49.2,2.0
256.0,48.3,46.9,51.5,48.9,2.4
256.25,49.1,47.8,51.7,49.5,2.0
256.5,48.9,47.3,51.4,49.2,2.1
256.75,48.4,47.3,51.6,49.1,2.2
257.0,48.4,47.4,51.2,49.0,2.0
257.25,47.9,47.1,51.7,48.9,2.4
257.5,48.1,47.6,51.7,49.1,2.2
257.75,47.3,47.3,51.6,48.7,2.5
258.0,47.2,47.0,51.8,48.7,2.7
258.25,47.4,47.1,52.1,48.9,2.8
258.5,47.6,45.5,51.2,48.1,2.9
258.75,47.3,46.8,51.2,48.5,2.4
259.0,47.0,46.0,53.6,48.9,4.1
259.25,47.0,45.8,51.2,48.0,2.8
259.5,46.9,45.4,51.9,48.1,3.4
259.75,46.7,45.8,52.5,48.3,3.7
260.0,46.2,45.9,52.7,48.3,3.8
260.25,46.1,45.5,51.6,47.7,3.4
260.5,46.0,46.4,51.7,48.0,3.2
260.75,45.2,46.1,51.6,47.7,3.5
261.0,46.1,45.7,51.8,47.9,3.4
261.25,45.5,44.7,51.8,47.3,3.9
261.5,45.6,45.7,51.7,47.7,3.5
261.75,46.2,44.7,52.2,47.7,4.0
262.0,45.9,45.7,52.2,47.9,3.7
262.25,44.7,44.7,51.6,47.0,4.0
262.5,45.7,45.3,52.5,47.8,4.1
262.75,45.3,44.8,51.8,47.3,3.9
263.0,45.7,45.1,51.6,47.4,3.6
263.25,46.0,44.1,51.2,47.1,3.6
263.5,45.9,44.6,51.8,47.4,3.8
263.75,45.9,44.8,51.5,47.4,3.6
264.0,46.3,44.4,51.1,47.2,3.4
264.25,45.6,45.0,50.7,47.1,3.1
264.5,46.0,44.4,51.4,47.3,3.7
264.75,45.8,43.3,50.9,46.7,3.9
265.0,45.9,44.6,51.0,47.2,3.4
265.25,46.7,44.0,51.1,47.3,3.6
265.5,45.8,44.5,50.5,46.9,3.2
265.75,46.6,43.8,50.1,46.8,3.1
266.0,46.1,44.1,50.2,46.8,3.1
266.25,45.5,44.4,51.0,47.0,3.5
266.5,46.2,43.2,51.9,47.1,4.5
266.75,46.0,44.6,50.2,46.9,2.9
267.0,46.4,43.8,50.3,46.8,3.3
267.25,46.3,44.0,50.5,46.9,3.3
267.5,45.9,43.4,50.6,46.6,3.6
267.75,46.0,44.1,49.6,46.6,2.8
268.0,46.2,44.5,49.5,46.7,2.5
268.25,46.3,44.3,50.4,47.0,3.1
268.5,46.1,44.5,50.3,47.0,3.0
268.75,45.8,44.1,50.0,46.6,3.0
269.0,46.2,44.4,49.9,46.9,2.8
269.25,46.6,43.9,49.8,46.8,3.0
269.5,46.0,43.9,50.2,46.7,3.2
269.75,46.2,43.5,50.5,46.7,3.5
270.0,47.3,43.4,49.7,46.8,3.2
270.25,45.3,43.4,50.4,46.4,3.6
270.5,46.5,43.6,50.2,46.8,3.3
270.75,45.1,43.5,50.4,46.3,3.6
271.0,46.6,43.2,50.0,46.6,3.4
271.25,45.8,43.4,50.2,46.5,3.4
271.5,46.3,43.2,50.8,46.7,3.9
271.75,46.8,43.2,50.7,46.9,3.8
272.0,45.9,43.0,50.0,46.3,3.5
272.25,46.5,43.2,50.2,46.6,3.5
272.5,45.9,42.9,50.1,46.3,3.6
272.75,46.0,42.8,50.6,46.5,4.0
273.0,46.5,43.1,51.3,47.0,4.1
273.25,46.3,42.7,51.1,46.7,4.2
273.5,45.5,43.6,50.7,46.6,3.7
273.75,46.0,43.8,50.6,46.8,3.5
274.0,46.0,42.9,50.2,46.4,3.7
274.25,45.5,43.7,51.1,46.8,3.8
274.5,46.1,43.2,50.6,46.6,3.7
274.75,46.0,43.7,51.2,47.0,3.8
275.0,45.0,43.7,51.3,46.7,4.0
275.25,45.8,43.7,50.2,46.6,3.3
275.5,45.4,43.5,50.3,46.4,3.5
275.75,45.9,43.6,50.4,46.6,3.5
276.0,45.5,44.1,51.0,46.8,3.6
276.25,45.3,44.0,51.0,46.7,3.7
276.5,45.5,43.8,50.4,46.6,3.4
276.75,45.3,43.8,50.9,46.7,3.7
277.0,44.9,44.3,51.5,46.9,4.0
277.25,45.7,43.6,50.8,46.7,3.7
277.5,45.4,44.2,51.0,46.9,3.7
277.75,44.7,44.9,51.0,46.9,3.6
278.0,45.5,45.2,49.3,46.7,2.3
278.25,46.0,44.6,49.5,46.7,2.5
278.5,45.0,44.9,50.8,46.9,3.3