File: 01_Data/Cellulose_Insulation/Cone/Cellulose_Insulation_Cone_HF50Scan_230615_R2.csv
Names,Time,Stack TC,Smoke TC,Exh Press,Smoke Comp,Smoke Meas,CO Meter,CO2 Meter,O2 Meter,Sample Mass,Ext Coeff,Start Test,Flame Verif
Chan Gain,,500,500,1,1,1,1,1,1,1,1,1.0,1.0
Offset,,0,0,0.245636,0,0,0,0,0,0,0,0.0,0.0
Gain,,1,1,25.011,13.6893,14.9403,1,1,1,1.00094,1.03834,1.0,1.0
Units,sec,C,C,Pa,%,%,%,%,%,g,/m,,
Baseline,,37.8571,40.2977,141.992,99.7199,99.6798,-2.17435e-06,0.0481121,20.9583,-445.529,0.00366935,,
5,1,34.123,35.1624,142.14,98.3295,96.4213,7.41983e-05,0.0492419,20.9584,78.7543,0.178499,1.0,1.0
10,2.25,33.9954,35.3126,122.555,98.3187,101.212,1.86635e-05,0.0498746,20.9581,78.504,-0.264157,0.0,1.0
15,3.5,34.5912,38.4724,121.469,98.3408,99.9863,-2.13631e-05,0.0501405,20.9577,78.2338,-0.151141,0.0,1.0
20,4.75,36.6765,42.1883,124.784,98.3404,100.216,-4.44775e-05,0.0501022,20.9567,78.0336,-0.172089,0.0,1.0
25,6,37.1103,43.9851,127.927,98.3149,99.0356,-3.36884e-05,0.0499755,20.9561,77.7833,-0.0665276,0.0,1.0
30,7.25,37.8973,46.1566,127.702,98.3312,98.8606,3.4313e-05,0.0497915,20.9558,77.2428,-0.0489025,0.0,0.0
35,8.5,39.0727,48.4125,122.741,98.3454,98.7484,0.000138962,0.0533069,20.9556,77.3529,-0.037247,0.0,0.0
40,9.75,40.1976,49.9582,127.301,98.3471,98.4443,0.000281141,0.0711387,20.9555,77.1327,-0.00899912,0.0,0.0
45,11,41.5476,51.0936,123.251,98.3279,97.9564,0.000450512,0.11962,20.9546,77.0126,0.0344715,0.0,0.0
50,12.25,41.7687,52.1426,126.056,98.335,99.0917,0.000664988,0.197203,20.9496,76.8124,-0.069827,0.0,0.0
55,13.5,42.396,53.1143,130.476,98.3387,99.3844,0.000937442,0.275073,20.9126,76.6022,-0.0963444,0.0,0.0
60,14.75,43.0115,54.2862,129.772,98.3408,98.5888,0.00116428,0.332392,20.8372,76.4721,-0.0229417,0.0,0.0
65,16,44.1016,54.7809,128.939,98.3354,98.8264,0.00136132,0.368577,20.7293,76.322,-0.0453647,0.0,0.0
70,17.25,44.5126,55.4827,129.81,98.3371,98.8464,0.0015691,0.388271,20.6468,76.1918,-0.0470584,0.0,0.0
75,18.5,45.1208,56.2038,133.275,98.3437,99.2477,0.00176395,0.396439,20.598,76.0117,-0.083336,0.0,0.0
80,19.75,45.8094,56.5137,129.772,98.3304,98.8505,0.00195591,0.39708,20.5693,75.8515,-0.0480555,0.0,0.0
85,21,45.2648,56.4082,129.714,98.332,98.9007,0.00220723,0.389324,20.5519,75.7314,-0.0525209,0.0,0.0
90,22.25,46.2267,57.0773,131.579,98.3345,98.9135,0.00236377,0.380493,20.5478,75.6313,-0.053464,0.0,0.0
95,23.5,45.7195,56.2382,127.797,98.3458,99.0416,0.0024431,0.372714,20.5521,75.4311,-0.0642097,0.0,0.0
100,24.75,46.2294,57.2039,128.852,98.3312,98.9089,0.00246042,0.36262,20.5659,75.331,-0.0533537,0.0,0.0
105,26,46.8739,56.9223,134.057,98.3337,98.768,0.00243585,0.352357,20.578,75.2109,-0.0401387,0.0,0.0
110,27.25,47.3197,56.9505,133.338,98.3391,98.727,0.00236713,0.341963,20.59,75.0908,-0.035851,0.0,0.0
115,28.5,46.9775,56.7415,132.902,98.3404,99.089,0.00230153,0.330112,20.6028,75.0207,-0.069072,0.0,0.0
120,29.75,47.1134,56.7309,133.733,98.3308,98.7566,0.00223889,0.318267,20.6167,74.8606,-0.0393579,0.0,0.0
125,31,47.5511,56.6557,133.219,98.3137,98.5952,0.00217212,0.30772,20.6317,74.8005,-0.0260467,0.0,0.0
130,32.25,47.4949,56.6108,131.786,98.3287,98.592,0.00209786,0.297905,20.6454,74.6704,-0.0243586,0.0,0.0
135,33.5,47.2975,56.2029,132.432,98.3442,98.8159,0.00203378,0.288132,20.6565,74.5503,-0.0435851,0.0,0.0
140,34.75,46.8402,55.5642,131.841,98.3191,98.8072,0.00200776,0.280046,20.6655,74.4202,-0.0451082,0.0,0.0
145,36,47.978,56.6167,135.614,98.3387,98.6641,0.00201504,0.271393,20.6753,74.3601,-0.0300831,0.0,0.0
150,37.25,47.6065,55.9727,127.276,98.3404,99.1957,0.0020212,0.264364,20.6893,74.26,-0.078874,0.0,0.0
155,38.5,47.7773,56.3397,134.326,98.3383,98.66,0.00201326,0.258211,20.7007,74.1299,-0.0297427,0.0,0.0
160,39.75,47.4021,55.1298,135.89,98.3274,99.0092,0.00200051,0.252463,20.7093,74.0598,-0.0629343,0.0,0.0
165,41,47.4672,54.9855,129.724,98.3433,99.1428,0.0020069,0.247322,20.7166,73.9697,-0.073746,0.0,0.0
170,42.25,46.847,55.4421,135.416,98.3717,98.7001,0.00201817,0.243269,20.7223,73.8997,-0.0303511,0.0,0.0
175,43.5,48.6014,55.9907,133.195,98.3479,98.7224,0.00202072,0.23905,20.728,73.7596,-0.0346171,0.0,0.0
180,44.75,48.1044,55.3676,139.074,98.3475,98.4912,0.00200409,0.234431,20.7327,73.7696,-0.0133036,0.0,0.0
185,46,47.9356,54.6399,134.283,98.3863,99.1195,0.0019767,0.230641,20.7378,73.6294,-0.0676247,0.0,0.0
190,47.25,47.8673,54.9734,135.314,98.3955,98.9654,0.00193891,0.226865,20.7423,73.5093,-0.0526017,0.0,0.0
195,48.5,48.1596,54.9411,136.853,98.3968,98.8587,0.00188868,0.223194,20.7473,73.4292,-0.0426611,0.0,0.0
200,49.75,47.9199,54.5013,134.84,98.4097,98.8793,0.00186458,0.21937,20.7531,73.3692,-0.0433522,0.0,0.0
205,51,48.1742,54.5751,134.223,98.4402,98.5492,0.00189924,0.215587,20.7579,73.2691,-0.0100719,0.0,0.0
210,52.25,47.6349,53.2482,134.101,98.4728,98.5647,0.00200163,0.212191,20.7628,73.189,-0.00849049,0.0,0.0
215,53.5,47.7359,54.2282,136.989,98.4828,98.7151,0.00211233,0.209135,20.7657,73.0989,-0.0214566,0.0,0.0
220,54.75,47.8311,54.2072,139.521,98.4966,98.9021,0.00232105,0.206507,20.7693,73.0188,-0.0374132,0.0,0.0
225,56,47.5692,53.8201,130.431,98.548,99.0083,0.00245586,0.204477,20.7729,72.9188,-0.0424402,0.0,0.0
230,57.25,47.7406,53.771,138.693,98.5781,99.0165,0.00252895,0.203012,20.7764,72.8187,-0.0404163,0.0,0.0
235,58.5,47.7387,53.8405,134.77,98.6036,99.0448,0.00259873,0.201411,20.7785,72.7586,-0.0406617,0.0,0.0
240,59.75,48.3039,54.1104,137.402,98.6805,99.1004,0.00266884,0.199224,20.7797,72.6785,-0.0386775,0.0,0.0
245,61,47.4187,53.8215,131.114,98.7181,99.2522,0.00272367,0.196792,20.7812,72.5884,-0.049152,0.0,0.0
250,62.25,47.7155,53.3294,139.56,98.7632,99.0936,0.00277486,0.195084,20.7839,72.5184,-0.0304175,0.0,0.0
255,63.5,47.3373,53.3401,134.562,98.8024,98.9563,0.00287135,0.194366,20.7876,72.4283,-0.014173,0.0,0.0
260,64.75,47.4321,53.5348,134.922,98.8522,99.2408,0.00296215,0.194177,20.7895,72.3482,-0.0357415,0.0,0.0
265,66,47.696,53.1688,138.725,98.9161,99.167,0.00306365,0.193893,20.791,72.2581,-0.0230718,0.0,0.0
270,67.25,47.6448,52.7719,133.645,98.9846,99.5769,0.0031559,0.192789,20.7916,72.138,-0.0543356,0.0,0.0
275,68.5,47.4119,53.4483,136.543,99.0581,99.8363,0.00323978,0.191542,20.7919,72.128,-0.0712719,0.0,0.0
280,69.75,47.2199,53.2928,135.666,99.145,99.3881,0.0033338,0.190461,20.7921,72.078,-0.0223033,0.0,0.0
285,71,47.5282,53.0101,136.279,99.2231,99.5965,0.00344163,0.189426,20.7932,71.9578,-0.0342041,0.0,0.0
290,72.25,47.819,53.0392,140.588,99.2687,99.6571,0.00356786,0.188219,20.7948,71.8878,-0.0355703,0.0,0.0
295,73.5,47.5836,52.8863,137.873,99.3451,99.8427,0.00371301,0.186852,20.7962,71.7577,-0.0455016,0.0,0.0
300,74.75,47.6184,52.8902,137.588,99.4391,99.813,0.00384804,0.185683,20.7975,71.6676,-0.0341845,0.0,0.0
305,76,47.7827,52.8428,136.367,99.5076,99.7132,0.00398032,0.18484,20.7988,71.6476,-0.0187948,0.0,0.0
310,77.25,47.5969,52.5527,135.097,99.5858,100.124,0.00407609,0.183737,20.8004,71.6275,-0.0490941,0.0,0.0
315,78.5,47.2886,52.1297,135.803,99.666,100.294,0.00416222,0.181445,20.8017,71.5675,-0.0571776,0.0,0.0
320,79.75,47.2944,52.5735,133.817,99.7286,100.212,0.00429912,0.179426,20.8038,71.4474,-0.0440793,0.0,0.0
325,81,47.3132,53.005,138.16,99.775,100.149,0.00447758,0.178147,20.806,71.3373,-0.0340825,0.0,0.0
330,82.25,47.4763,53.0085,135.058,99.8076,100.079,0.00466733,0.177421,20.808,71.2872,-0.0247206,0.0,0.0
335,83.5,47.4289,52.9508,136.673,99.8632,100.17,0.00484167,0.177133,20.8096,71.1871,-0.0279465,0.0,0.0
340,84.75,47.8695,51.7301,136.577,99.9099,100.293,0.00493918,0.177008,20.8105,71.1571,-0.0348662,0.0,0.0
345,86,47.5463,52.6717,136.213,99.9421,100.274,0.00497296,0.176715,20.811,71.077,-0.0302367,0.0,0.0
350,87.25,47.4539,52.8556,138.732,99.9647,100.421,0.00500139,0.176298,20.8113,71.047,-0.0414655,0.0,0.0
355,88.5,47.68,52.9577,135.09,100.014,100.217,0.00506846,0.175694,20.8115,70.9669,-0.0183917,0.0,0.0
360,89.75,47.4965,52.858,132.775,100.015,100.631,0.00515741,0.17518,20.8123,70.8768,-0.0558638,0.0,0.0
365,91,47.3298,52.6406,133.765,100.032,100.326,0.0052465,0.174325,20.813,70.8268,-0.0267333,0.0,0.0
370,92.25,47.4589,53.1123,134.365,100.071,100.584,0.00533318,0.173389,20.8134,70.7567,-0.0465984,0.0,0.0
375,93.5,47.7444,52.3213,134.969,100.07,100.435,0.00540842,0.172561,20.8138,70.6766,-0.03316,0.0,0.0
380,94.75,47.5768,52.5255,136.389,100.064,100.526,0.00545905,0.171935,20.8148,70.5565,-0.0419967,0.0,0.0
385,96,47.351,52.1861,133.563,100.058,100.333,0.00548167,0.171437,20.8152,70.4865,-0.0249987,0.0,0.0
390,97.25,46.3533,51.8105,138.384,100.072,100.441,0.00547875,0.170639,20.8153,70.4464,-0.0334695,0.0,0.0
395,98.5,46.883,52.5053,140.946,100.08,100.261,0.00546208,0.169642,20.8158,70.3764,-0.0165184,0.0,0.0
400,99.75,47.7712,51.4566,134.474,100.038,100.417,0.0054864,0.168819,20.8174,70.2863,-0.034397,0.0,0.0
405,101,47.2966,52.2462,132.341,100.016,100.445,0.00554285,0.168396,20.8185,70.2562,-0.038973,0.0,0.0
410,102.25,47.1032,51.8787,131.704,100.006,100.42,0.00561242,0.167735,20.8191,70.1662,-0.0376564,0.0,0.0
415,103.5,47.1201,52.158,132.106,99.9977,100.376,0.00567456,0.167043,20.8195,70.0961,-0.0343637,0.0,0.0
420,104.75,47.0595,51.9236,132.73,99.9563,100.34,0.00569435,0.166083,20.8202,70.0461,-0.0348624,0.0,0.0
425,106,47.4179,51.8576,138.221,99.9413,100.341,0.00566696,0.165328,20.8211,69.956,-0.0363574,0.0,0.0
430,107.25,47.4094,52.4511,138.218,99.9262,100.09,0.00565112,0.164802,20.8219,69.8859,-0.0148956,0.0,0.0
435,108.5,47.3465,51.9201,132.415,99.8644,100.336,0.00572886,0.164434,20.8227,69.8258,-0.0429523,0.0,0.0
440,109.75,47.641,51.7725,138.679,99.8034,100.107,0.00580303,0.164135,20.8237,69.7458,-0.0276323,0.0,0.0
445,111,47.3409,51.6324,137.665,99.7779,100.175,0.0059898,0.163557,20.8244,69.7057,-0.0361383,0.0,0.0
450,112.25,47.3367,51.5554,136.09,99.7483,100.263,0.00613522,0.163077,20.8249,69.6256,-0.0468423,0.0,0.0
455,113.5,46.9463,52.2091,136.855,99.696,99.8418,0.00624406,0.16282,20.8251,69.5656,-0.0133019,0.0,0.0
460,114.75,47.5939,51.7375,136.563,99.6484,99.9261,0.00628281,0.162801,20.8253,69.5155,-0.0253455,0.0,0.0
465,116,47.2566,51.8353,138.734,99.6066,100.135,0.00627153,0.1627,20.8254,69.4555,-0.0481788,0.0,0.0
470,117.25,47.2787,52.0325,136.133,99.5573,99.7018,0.00623587,0.162518,20.8255,69.4155,-0.0132041,0.0,0.0
475,118.5,47.2195,52.113,136.174,99.5298,99.7296,0.00617317,0.162468,20.826,69.3254,-0.0182677,0.0,0.0
480,119.75,47.3735,51.6724,140.163,99.4613,99.7205,0.00613281,0.162589,20.8255,69.2453,-0.0237065,0.0,0.0
485,121,47.1345,52.0033,136.364,99.4274,99.6735,0.00612017,0.162544,20.8254,69.1852,-0.0225156,0.0,0.0
490,122.25,47.1713,51.6314,136.021,99.4032,99.6507,0.00615173,0.162243,20.826,69.1652,-0.0226522,0.0,0.0
495,123.5,47.4087,51.1624,134.072,99.3539,99.4861,0.00623064,0.162132,20.8264,69.0351,-0.012113,0.0,0.0
500,124.75,47.4144,51.5084,134.673,99.3092,100.006,0.00630185,0.162083,20.8267,68.9951,-0.063675,0.0,0.0
505,126,46.9499,51.6588,136.41,99.2854,99.5878,0.00635913,0.16185,20.8268,68.925,-0.0277009,0.0,0.0
510,127.25,47.0546,51.8299,136.366,99.2528,99.7834,0.00640575,0.161389,20.8269,68.8749,-0.0485619,0.0,0.0
515,128.5,47.2365,51.0205,134.465,99.201,99.3466,0.00647916,0.160639,20.8269,68.7849,-0.013359,0.0,0.0
520,129.75,47.232,51.1005,136.278,99.1793,99.5358,0.00655282,0.159971,20.827,68.7048,-0.0326849,0.0,0.0
525,131,46.6983,51.5422,139.165,99.1613,99.4054,0.00658803,0.159422,20.827,68.5847,-0.0223948,0.0,0.0
530,132.25,47.0707,51.8132,135.75,99.2352,99.4861,0.00655425,0.159111,20.8278,68.5346,-0.0229967,0.0,0.0
535,133.5,47.2312,51.1931,135.874,99.3084,99.56,0.00650948,0.158937,20.8284,68.4545,-0.0230484,0.0,0.0
540,134.75,47.1099,51.4838,136.035,99.3518,99.5677,0.00649934,0.158701,20.8288,68.4145,-0.0197736,0.0,0.0
545,136,46.7371,51.4468,132.07,99.4061,99.6366,0.0065271,0.158322,20.829,68.4445,-0.021092,0.0,0.0
550,137.25,46.6607,51.6564,137.282,99.4395,99.5344,0.00658683,0.157683,20.8289,68.3444,-0.00868937,0.0,0.0
555,138.5,46.8309,51.6845,135.952,99.4763,99.8044,0.00663825,0.15691,20.8289,68.3244,-0.0299883,0.0,0.0
560,139.75,47.1704,50.9028,137.022,99.5248,99.6056,0.00669402,0.156392,20.8289,68.2043,-0.00739342,0.0,0.0
565,141,46.1102,50.9518,138.717,99.5599,100.159,0.00671564,0.156157,20.8298,68.1643,-0.0546567,0.0,0.0
570,142.25,47.0963,51.4764,139.566,99.5607,99.9676,0.00672435,0.155952,20.8304,68.0842,-0.0371488,0.0,0.0
575,143.5,47.213,51.1573,137.429,99.5816,99.7879,0.00674674,0.155626,20.8307,67.9841,-0.0188569,0.0,0.0
580,144.75,46.9322,51.0768,137.864,99.5924,99.6717,0.00681898,0.15531,20.8309,67.9441,-0.00724455,0.0,0.0
585,146,46.7144,50.4881,133.585,99.5891,100.01,0.00691125,0.155099,20.831,67.894,-0.0384136,0.0,0.0
590,147.25,46.8276,51.3218,134.981,99.5816,99.9202,0.00698616,0.154844,20.8311,67.854,-0.0309176,0.0,0.0
595,148.5,46.7529,51.6558,133.863,99.5678,99.875,0.00699197,0.154367,20.8318,67.844,-0.0280625,0.0,0.0
600,149.75,47.1478,51.6869,140.427,99.5653,99.5896,0.00698289,0.153848,20.8325,67.7639,-0.0022256,0.0,0.0
605,151,46.3517,50.2099,131.202,99.5365,99.7478,0.00700564,0.153493,20.8329,67.6838,-0.0193209,0.0,0.0
610,152.25,45.943,51.3354,138.432,99.4713,99.7948,0.00704189,0.15299,20.8332,67.5537,-0.0295738,0.0,0.0
615,153.5,45.9645,51.073,137.166,99.4391,99.8814,0.00702252,0.152325,20.8333,67.5537,-0.0404234,0.0,0.0
620,154.75,46.3913,51.1875,138.429,99.3907,99.9981,0.00694659,0.151447,20.8334,67.4136,-0.0555011,0.0,0.0
625,156,46.7223,51.0862,139.881,99.3176,99.6206,0.006846,0.150559,20.8339,67.4236,-0.0277516,0.0,0.0
630,157.25,46.5671,51.0861,135.453,99.2541,99.6721,0.0067821,0.149561,20.8361,67.3035,-0.0382866,0.0,0.0
635,158.5,46.4402,51.2497,134.539,99.2198,99.4784,0.0067757,0.14871,20.8379,67.3135,-0.0237059,0.0,0.0
640,159.75,46.8311,50.9242,135.61,99.1258,99.5276,0.00677719,0.148663,20.8394,67.2134,-0.0368458,0.0,0.0
645,161,46.7369,51.3046,134.601,99.0539,99.6612,0.00690478,0.14905,20.8408,67.1533,-0.0556683,0.0,0.0
650,162.25,46.871,50.9698,136.265,98.9929,99.2531,0.00707347,0.149642,20.841,67.1533,-0.0239079,0.0,0.0
655,163.5,45.7594,50.4778,135.079,98.9787,99.3074,0.00721411,0.150096,20.8408,67.0432,-0.0301931,0.0,0.0
660,164.75,46.1702,51.427,132.808,98.8948,99.2253,0.00732997,0.150206,20.8398,66.9832,-0.030393,0.0,0.0
665,166,46.3436,50.8618,129.319,98.81,99.0156,0.00741937,0.150008,20.8391,66.9331,-0.0189341,0.0,0.0
670,167.25,46.8085,50.9211,135.055,98.8208,99.2828,0.00745395,0.149655,20.8387,66.853,-0.0424778,0.0,0.0
675,168.5,46.7902,50.763,141.608,98.8576,99.477,0.00744076,0.149298,20.8394,66.843,-0.0568913,0.0,0.0
680,169.75,46.2885,51.1335,137.239,98.8881,99.2376,0.00743457,0.149059,20.8398,66.813,-0.0321384,0.0,0.0
685,171,46.4752,50.6289,138.216,98.9065,99.0119,0.00747175,0.148962,20.8409,66.7429,-0.00970724,0.0,0.0
690,172.25,46.4734,50.3506,137.151,98.9349,99.1619,0.00753957,0.148963,20.8417,66.7229,-0.0208803,0.0,0.0
695,173.5,46.6366,50.3824,138.65,98.9829,99.482,0.00761772,0.14878,20.8421,66.6228,-0.0458104,0.0,0.0
700,174.75,46.2612,50.7626,142.126,99.028,99.751,0.00771863,0.148341,20.8424,66.5828,-0.0662553,0.0,0.0
705,176,46.6922,50.4379,137.473,99.0732,99.3343,0.00777464,0.147903,20.8426,66.5327,-0.0239753,0.0,0.0
710,177.25,46.8689,50.8269,134.537,99.1241,99.9544,0.00775348,0.147605,20.8427,66.4827,-0.0759716,0.0,0.0
715,178.5,46.536,50.2197,134.723,99.1743,99.7113,0.00768345,0.147293,20.8427,66.4527,-0.049194,0.0,0.0
720,179.75,46.0822,51.0373,134.037,99.1943,99.5504,0.0075826,0.146782,20.8427,66.3526,-0.0326391,0.0,0.0
725,181,46.3075,51.0359,136.332,99.2436,99.7091,0.00747522,0.146218,20.8434,66.3325,-0.0426185,0.0,0.0
730,182.25,46.5952,51.1173,137.9,99.3025,99.8094,0.0073329,0.145858,20.8441,66.2425,-0.0463736,0.0,0.0
735,183.5,46.2589,50.8506,136.746,99.3363,99.699,0.007159,0.145445,20.8448,66.1824,-0.0331954,0.0,0.0
740,184.75,46.204,51.1912,135.819,99.3673,99.6639,0.00700312,0.145239,20.8456,66.1724,-0.0271531,0.0,0.0
745,186,46.5686,50.9406,137.599,99.4103,99.8221,0.00695507,0.145761,20.8461,66.0523,-0.0376569,0.0,0.0
750,187.25,46.7942,50.9543,138.686,99.4412,99.6566,0.00700572,0.146436,20.8463,65.9722,-0.019711,0.0,0.0
755,188.5,46.9198,51.0404,132.745,99.4466,99.7574,0.00711745,0.147684,20.8457,65.8921,-0.0284181,0.0,0.0
760,189.75,46.7063,50.6989,140.052,99.4671,99.7811,0.007267,0.148806,20.8442,65.8921,-0.0287084,0.0,0.0
765,191,43.9819,50.4446,134.277,99.4922,99.7747,0.00737854,0.149051,20.8431,65.8221,-0.0258306,0.0,0.0
770,192.25,45.9666,51.2985,135.344,99.5239,99.8427,0.00741982,0.148159,20.8418,65.742,-0.0291234,0.0,0.0
775,193.5,46.2514,51.2566,132.309,99.5248,99.8696,0.00739515,0.147146,20.841,65.6919,-0.031501,0.0,0.0
780,194.75,47.0627,50.5041,138.091,99.5235,99.8249,0.00731309,0.146546,20.8413,65.722,-0.0275397,0.0,0.0
785,196,46.4288,50.8964,135.278,99.526,100.208,0.00718164,0.146373,20.8423,65.6619,-0.0621881,0.0,0.0
790,197.25,45.9075,50.7959,139.088,99.5185,99.8956,0.00707227,0.146412,20.8432,65.6019,-0.0344444,0.0,0.0
795,198.5,46.7567,50.3907,134.775,99.4993,99.7793,0.00704672,0.146285,20.8437,65.5818,-0.0255965,0.0,0.0
800,199.75,46.5061,50.6884,136.284,99.493,100.258,0.00707152,0.145819,20.844,65.4817,-0.0697252,0.0,0.0
805,201,46.1323,50.2588,134.477,99.4629,99.7469,0.00709277,0.145324,20.8442,65.4317,-0.0259683,0.0,0.0
810,202.25,46.7305,50.7454,134.697,99.4521,99.8408,0.00710508,0.14487,20.8446,65.3816,-0.0355354,0.0,0.0
815,203.5,46.6378,51.1707,133.064,99.4015,99.7734,0.0071259,0.144685,20.8458,65.2816,-0.0340084,0.0,0.0
820,204.75,46.4858,50.9191,134.196,99.3811,99.8978,0.0071678,0.144624,20.8466,65.2115,-0.0472396,0.0,0.0
825,206,46.6945,50.4921,133.591,99.3522,99.834,0.00721748,0.144436,20.847,65.1915,-0.0440608,0.0,0.0
830,207.25,46.1675,50.8353,135.262,99.2958,99.6202,0.00726214,0.144468,20.8463,65.1014,-0.0297029,0.0,0.0
835,208.5,46.4855,50.7955,139.457,99.2235,99.7538,0.00725136,0.144626,20.8451,65.1314,-0.0485407,0.0,0.0
840,209.75,45.8989,50.4623,140.678,99.1722,99.5974,0.00720151,0.144687,20.8444,65.0513,-0.0389681,0.0,0.0
845,211,46.6798,51.2962,139.458,99.1467,99.6589,0.00715084,0.1448,20.8441,64.9813,-0.0469362,0.0,0.0
850,212.25,46.4704,51.1475,137.991,99.069,99.7018,0.00712942,0.144888,20.8438,64.9112,-0.0579933,0.0,0.0
855,213.5,46.2828,51.3901,134.995,99.0168,99.4378,0.00714604,0.145202,20.8437,64.8411,-0.0386469,0.0,0.0
860,214.75,46.5414,50.979,140.308,98.9796,99.3256,0.00718426,0.145779,20.8436,64.8011,-0.0317881,0.0,0.0
865,216,46.7957,51.0837,141.902,98.9357,99.1328,0.00724381,0.146226,20.8435,64.7711,-0.018123,0.0,0.0
870,217.25,46.3037,51.3203,135.541,98.8655,99.0986,0.00731701,0.146531,20.8435,64.731,-0.021444,0.0,0.0
875,218.5,46.3505,51.3363,135.432,98.8087,99.1501,0.00741394,0.146746,20.8435,64.701,-0.0314144,0.0,0.0
880,219.75,46.2331,50.8593,133.603,98.7694,99.0954,0.007503,0.146961,20.8435,64.6309,-0.0300074,0.0,0.0
885,221,46.8679,51.0545,137.967,98.7214,99.1277,0.00755435,0.147255,20.8434,64.6109,-0.0374138,0.0,0.0
890,222.25,46.2057,51.196,130.335,98.6454,98.9846,0.00754083,0.147296,20.8434,64.5108,-0.0312673,0.0,0.0
895,223.5,46.7034,50.9856,139.141,98.5969,98.7926,0.0075063,0.146787,20.843,64.4708,-0.0180626,0.0,0.0
900,224.75,46.7096,50.7363,143.651,98.5505,98.8373,0.0073952,0.145821,20.8428,64.4007,-0.0264665,0.0,0.0
905,226,46.5909,50.7085,136.948,98.4916,98.6399,0.00725744,0.144563,20.8427,64.3907,-0.0137005,0.0,0.0
910,227.25,46.6594,50.3681,140.678,98.4356,98.6832,0.00714633,0.143454,20.8433,64.3206,-0.0228781,0.0,0.0
915,228.5,46.402,50.6409,134.767,98.4285,98.6381,0.007007,0.142401,20.8442,64.3006,-0.0193677,0.0,0.0
920,229.75,45.581,50.6644,136.503,98.3788,98.8446,0.00684527,0.141963,20.8457,64.2005,-0.0430211,0.0,0.0
925,231,46.7096,50.3363,133.78,98.3538,98.4712,0.00671691,0.141761,20.847,64.1405,-0.0108687,0.0,0.0
930,232.25,46.526,50.4894,134.253,98.317,98.7178,0.00663837,0.141598,20.8481,64.1004,-0.03706,0.0,0.0
935,233.5,46.1897,50.3848,137.449,98.3237,98.8072,0.00660842,0.141318,20.8493,64.0504,-0.0446827,0.0,0.0
940,234.75,46.4232,50.7424,135.926,98.3066,98.6987,0.00663364,0.14079,20.85,64.0304,-0.0362604,0.0,0.0
945,236,46.4687,50.8721,139.63,98.2848,98.706,0.0066974,0.140235,20.8504,63.9903,-0.0389473,0.0,0.0
950,237.25,46.4896,50.606,134.952,98.307,98.5765,0.0067709,0.139935,20.8507,63.9403,-0.0249383,0.0,0.0
955,238.5,46.1815,50.5191,134.234,98.3283,98.8104,0.00684466,0.139595,20.8508,63.9103,-0.0445512,0.0,0.0
960,239.75,46.3357,49.7361,135.073,98.3588,98.9987,0.00689203,0.139036,20.8509,63.8502,-0.059068,0.0,0.0
965,241,46.5034,50.1741,136.699,98.398,98.8961,0.00688721,0.138755,20.8517,63.8002,-0.0459883,0.0,0.0
970,242.25,46.131,50.9949,134.628,98.4557,98.7311,0.00686124,0.138939,20.8514,63.7301,-0.0254397,0.0,0.0
975,243.5,46.6648,50.6022,135.881,98.5088,98.7197,0.00686256,0.139114,20.8513,63.7101,-0.0194814,0.0,0.0
980,244.75,46.3842,50.8172,131.489,98.5522,98.8286,0.00685166,0.139128,20.8512,63.66,-0.0255132,0.0,0.0
985,246,46.3619,50.3124,135.597,98.5973,98.9303,0.0068156,0.139347,20.8511,63.6,-0.0307101,0.0,0.0
990,247.25,46.1477,50.3011,136.296,98.703,98.9486,0.00674025,0.139965,20.8511,63.5499,-0.0226304,0.0,0.0
995,248.5,46.7003,50.6036,137.991,98.7841,99.0028,0.00667317,0.140309,20.8511,63.4899,-0.0201474,0.0,0.0
1000,249.75,45.9941,49.9948,137.082,98.8317,99.0776,0.00658463,0.140306,20.8511,63.5199,-0.0226342,0.0,0.0
1005,251,46.3687,50.2761,136.848,98.914,99.2773,0.00649216,0.139676,20.8511,63.4698,-0.0333927,0.0,0.0
1010,252.25,45.3335,49.7368,135.465,99.008,99.4154,0.00641263,0.138902,20.8511,63.3998,-0.0374078,0.0,0.0
1015,253.5,46.3363,50.6372,135.013,99.0752,99.3078,0.00628435,0.13778,20.8514,63.3097,-0.0213581,0.0,0.0
1020,254.75,45.7012,50.023,138.615,99.1421,99.4843,0.00613632,0.136901,20.8521,63.2997,-0.0313839,0.0,0.0
1025,256,46.3412,49.9722,137.905,99.2244,99.5477,0.00604405,0.136837,20.8527,63.2797,-0.0296272,0.0,0.0
1030,257.25,46.2434,50.0576,135.345,99.3134,99.7939,0.00605474,0.136998,20.8531,63.1796,-0.043962,0.0,0.0
1035,258.5,45.9327,50.2611,144.767,99.3919,99.9525,0.00620303,0.137223,20.8533,63.1495,-0.0512318,0.0,0.0
1040,259.75,46.1673,50.1202,135.632,99.4625,99.6598,0.00637335,0.137378,20.8534,63.1295,-0.0180507,0.0,0.0
1045,261,45.9633,50.1594,139.55,99.5235,99.7113,0.0066222,0.13747,20.8535,63.0695,-0.0171749,0.0,0.0
1050,262.25,46.3669,49.8431,137.358,99.5949,99.8796,0.0068535,0.137223,20.8535,63.0595,-0.0259945,0.0,0.0
1055,263.5,46.2049,50.4795,138.827,99.6772,99.9439,0.00702699,0.136637,20.8535,63.0194,-0.0243319,0.0,0.0
1060,264.75,46.0361,50.3196,135.062,99.7328,100.096,0.00713974,0.135958,20.8538,62.9494,-0.0330821,0.0,0.0
1065,266,45.925,49.8907,140.288,99.8047,100.134,0.00720813,0.135362,20.8546,62.9494,-0.0300488,0.0,0.0
1070,267.25,46.2276,50.5447,136.561,99.8569,100.287,0.00725048,0.134929,20.8551,62.8893,-0.0391251,0.0,0.0
1075,268.5,46.4562,50.0287,135.516,99.8999,100.158,0.00729823,0.134819,20.8554,62.8292,-0.023474,0.0,0.0
1080,269.75,45.5874,50.3601,141.519,99.9333,100.152,0.00733245,0.13465,20.8556,62.7892,-0.0198889,0.0,0.0
1085,271,45.9726,49.9781,138.971,99.9847,100.373,0.00731151,0.134381,20.8557,62.7392,-0.0352956,0.0,0.0
1090,272.25,45.9528,50.0414,138.3,100.009,100.256,0.00722498,0.134084,20.8558,62.6591,-0.0224525,0.0,0.0
1095,273.5,46.5265,49.7819,135.156,100.02,100.347,0.0071265,0.133951,20.8558,62.6291,-0.0297018,0.0,0.0
1100,274.75,45.9877,50.0037,136.526,100.034,100.394,0.00703703,0.133979,20.8559,62.589,-0.0327497,0.0,0.0
1105,276,45.6839,49.7824,141.638,100.07,100.484,0.00700829,0.133924,20.8559,62.549,-0.037586,0.0,0.0
1110,277.25,46.0077,49.7957,134.39,100.079,100.405,0.00704575,0.133227,20.8567,62.529,-0.0296735,0.0,0.0
1115,278.5,45.5296,49.7671,134.769,100.067,100.487,0.00710342,0.132037,20.8577,62.4589,-0.0381012,0.0,0.0
1120,279.75,45.5367,49.6522,138.083,100.107,100.339,0.00711562,0.131073,20.8584,62.4389,-0.0210893,0.0,0.0
1125,281,45.2127,49.511,135.314,100.106,100.317,0.00709216,0.130377,20.8596,62.3988,-0.0192165,0.0,0.0
1130,282.25,45.8098,50.0955,137.267,100.099,100.52,0.00698495,0.129488,20.8603,62.4289,-0.0382277,0.0,0.0
1135,283.5,45.4727,49.7878,135.816,100.093,100.357,0.00681808,0.128162,20.8612,62.3788,-0.0239993,0.0,0.0
1140,284.75,46.0691,48.8271,134.62,100.104,100.343,0.00666092,0.126667,20.8622,62.3288,-0.0217276,0.0,0.0
1145,286,45.8563,49.2958,138.52,100.109,100.393,0.00655204,0.125589,20.8632,62.3188,-0.025823,0.0,0.0
1150,287.25,45.8497,49.5447,139.49,100.1,100.336,0.00648267,0.125342,20.8644,62.2587,-0.0214876,0.0,0.0
1155,288.5,45.7176,49.4709,136.021,100.096,100.435,0.00642718,0.125681,20.865,62.2287,-0.0308441,0.0,0.0
1160,289.75,46.0774,48.5539,136.927,100.103,100.384,0.00644407,0.126674,20.8654,62.1586,-0.0255241,0.0,0.0
1165,291,44.2929,48.894,141.078,100.113,100.317,0.00661853,0.127434,20.865,62.1886,-0.0185288,0.0,0.0
1170,292.25,45.5776,49.586,135.844,100.09,100.199,0.00689846,0.127391,20.8637,62.1186,-0.00989148,0.0,0.0
1175,293.5,45.6821,49.2467,137.397,100.101,100.222,0.00713651,0.12686,20.8627,62.0885,-0.0110573,0.0,0.0
1180,294.75,46.0938,49.2805,138.441,100.107,100.21,0.00727184,0.12662,20.8622,62.0385,-0.00936921,0.0,0.0
1185,296,45.9484,48.9079,136.496,100.105,100.133,0.00733634,0.127316,20.8628,62.0185,-0.00259052,0.0,0.0
1190,297.25,45.6933,49.2609,141.067,100.082,100.424,0.00739844,0.128476,20.8631,61.9384,-0.0311066,0.0,0.0
1195,298.5,45.5828,49.4228,141.897,100.115,100.268,0.00746564,0.129157,20.8633,61.8783,-0.0138707,0.0,0.0
1200,299.75,45.8762,49.2019,137.897,100.104,100.207,0.00751484,0.129244,20.8627,61.8783,-0.00934529,0.0,0.0
1205,301,45.4668,49.1957,135.098,100.097,100.417,0.00753523,0.128873,20.862,61.8283,-0.0291147,0.0,0.0
1210,302.25,45.641,48.5326,136.006,100.089,100.294,0.00749922,0.128126,20.8616,61.7883,-0.0185838,0.0,0.0
1215,303.5,44.7246,49.4533,137.035,100.104,100.396,0.00743224,0.127144,20.8616,61.7382,-0.0264861,0.0,0.0
1220,304.75,45.3381,49.0195,136.545,100.099,100.277,0.0074131,0.125927,20.8623,61.7382,-0.0161774,0.0,0.0
1225,306,45.3385,49.327,139.763,100.085,100.138,0.00745268,0.124765,20.8627,61.7182,-0.00475428,0.0,0.0
1230,307.25,45.3654,49.0484,135.52,100.077,100.285,0.00750063,0.124242,20.8629,61.7182,-0.0188998,0.0,0.0
1235,308.5,45.2237,49.1338,134.79,100.093,100.237,0.00757231,0.124133,20.8635,61.7182,-0.0130682,0.0,0.0
1240,309.75,45.1352,48.9321,133.947,100.097,100.442,0.00764568,0.124288,20.8644,61.6581,-0.0313883,0.0,0.0
1245,311,45.4433,49.062,138.005,100.08,100.338,0.00772322,0.124241,20.8649,61.6681,-0.0234392,0.0,0.0
1250,312.25,45.1397,48.2769,136.162,100.087,100.377,0.00777366,0.124182,20.8652,61.6481,-0.0263108,0.0,0.0
1255,313.5,44.6802,48.7006,136.876,100.104,100.305,0.0078007,0.123927,20.8654,61.5681,-0.018209,0.0,0.0
1260,314.75,44.951,48.9154,135.431,100.108,100.464,0.00779125,0.123187,20.8655,61.538,-0.0323847,0.0,0.0
1265,316,45.1431,48.8912,135.528,100.101,100.31,0.00777527,0.122436,20.8655,61.478,-0.0190103,0.0,0.0
1270,317.25,45.2577,48.8978,133.288,100.108,100.273,0.00779338,0.122092,20.8656,61.468,-0.0150098,0.0,0.0
1275,318.5,45.3239,48.9597,139.718,100.125,100.414,0.00787974,0.12223,20.8664,61.4079,-0.02624,0.0,0.0
1280,319.75,44.8875,48.2279,137.314,100.104,100.245,0.00800554,0.122441,20.867,61.4079,-0.0128637,0.0,0.0
1285,321,45.4761,48.4918,135.361,100.109,100.527,0.00810655,0.122246,20.8674,61.3879,-0.0379349,0.0,0.0
1290,322.25,44.9785,48.5406,136.841,100.126,100.117,0.0081763,0.122047,20.8676,61.3478,0.000878361,0.0,0.0
1295,323.5,45.0653,47.772,135.722,100.131,100.418,0.00825185,0.121955,20.8677,61.3078,-0.0260767,0.0,0.0
1300,324.75,44.543,48.9614,132.559,100.113,100.346,0.00836743,0.121592,20.8671,61.2778,-0.0212193,0.0,0.0
1305,326,45.0309,48.5407,137.841,100.119,100.364,0.00845129,0.120534,20.8674,61.2377,-0.0222217,0.0,0.0
1310,327.25,44.9173,48.8223,133.873,100.148,100.45,0.00845483,0.119321,20.8683,61.2277,-0.0274167,0.0,0.0
1315,328.5,44.8785,48.9132,134.631,100.128,100.238,0.00838819,0.11836,20.8695,61.1777,-0.00995778,0.0,0.0
1320,329.75,44.8287,48.3539,134.808,100.117,100.29,0.00830952,0.118025,20.8708,61.1376,-0.015744,0.0,0.0
1325,331,44.9029,48.1315,137.892,100.108,100.385,0.00830876,0.118159,20.8715,61.1577,-0.0252301,0.0,0.0
1330,332.25,45.0817,48.4127,132.74,100.113,100.411,0.00841754,0.118403,20.872,61.1477,-0.0270529,0.0,0.0
1335,333.5,44.7492,48.2703,138.8,100.097,100.273,0.00861538,0.11832,20.8714,61.1076,-0.0160366,0.0,0.0
1340,334.75,44.8298,47.8724,139.413,100.086,100.454,0.00875162,0.117983,20.8709,61.0876,-0.0334139,0.0,0.0
1345,336,44.9267,48.1566,137.795,100.082,100.346,0.0087927,0.117619,20.8711,61.0275,-0.0240292,0.0,0.0
1350,337.25,44.7483,47.8926,136.293,100.053,100.511,0.00876696,0.117082,20.8717,61.0075,-0.041543,0.0,0.0
1355,338.5,44.9101,48.0656,138.64,100.044,100.118,0.00867302,0.116346,20.8723,60.9575,-0.00669689,0.0,0.0
1360,339.75,44.8866,48.3647,134.661,100.006,100.208,0.00853443,0.115589,20.8735,60.9675,-0.0183265,0.0,0.0
1365,341,44.6968,47.9132,138.065,100.013,100.19,0.00839553,0.114856,20.8744,60.9174,-0.0160986,0.0,0.0
1370,342.25,43.1815,48.2893,135.559,100.006,100.408,0.00825082,0.114061,20.8756,60.9074,-0.0365781,0.0,0.0
1375,343.5,44.9249,48.6367,142.315,99.958,100.431,0.00810604,0.113455,20.8766,60.8474,-0.042984,0.0,0.0
1380,344.75,44.4863,47.6091,137.909,99.9258,100.049,0.00790214,0.113048,20.8772,60.8274,-0.0111987,0.0,0.0
1385,346,44.609,47.6954,141.201,99.9074,100.031,0.00769402,0.112422,20.8778,60.8173,-0.011297,0.0,0.0
1390,347.25,44.6509,47.8938,138.047,99.8924,100.112,0.00753107,0.111674,20.8787,60.7973,-0.020013,0.0,0.0
1395,348.5,44.4128,48.0752,139.436,99.8423,100.244,0.00742636,0.111128,20.879,60.7373,-0.0365656,0.0,0.0
1400,349.75,44.9146,47.3967,139.151,99.8034,99.9794,0.00740728,0.110803,20.8792,60.7173,-0.0160512,0.0,0.0
1405,351,44.7705,47.6332,135.146,99.785,100.153,0.00747651,0.110385,20.8792,60.6972,-0.0334995,0.0,0.0
1410,352.25,43.9669,47.7337,136.228,99.7445,100.336,0.00761634,0.109882,20.8794,60.6872,-0.0538522,0.0,0.0
1415,353.5,44.8566,47.2105,140.21,99.6827,99.8363,0.00778012,0.109593,20.8801,60.6572,-0.0140245,0.0,0.0
1420,354.75,44.2104,47.8615,139.328,99.6451,99.7383,0.00788673,0.109335,20.8812,60.6372,-0.00851222,0.0,0.0
1425,356,44.6774,47.7386,136.736,99.6046,99.8509,0.00791249,0.109208,20.8819,60.6071,-0.0224965,0.0,0.0
1430,357.25,44.8094,48.1221,140.301,99.567,99.6357,0.00789005,0.109262,20.8815,60.5771,-0.00628346,0.0,0.0
1435,358.5,44.3009,47.5376,134.52,99.4922,99.7082,0.00786431,0.109126,20.8813,60.5571,-0.0197518,0.0,0.0
1440,359.75,44.7271,47.9923,136,99.4625,99.6917,0.0078365,0.108608,20.8812,60.5271,-0.0209674,0.0,0.0
1445,361,44.0665,48.3353,135.585,99.4082,99.5518,0.00777888,0.107821,20.8812,60.5071,-0.0131448,0.0,0.0
1450,362.25,44.7704,47.8373,137.342,99.3518,99.7921,0.00769029,0.107255,20.8819,60.467,-0.0402712,0.0,0.0
1455,363.5,43.9537,48.4614,140.326,99.2937,99.467,0.00758981,0.10699,20.8835,60.457,-0.0158761,0.0,0.0
1460,364.75,44.2802,48.1043,136.05,99.2682,99.6019,0.00750231,0.106959,20.8847,60.437,-0.0305646,0.0,0.0
1465,366,44.688,47.9162,137.88,99.2073,99.5974,0.00745065,0.107012,20.8854,60.3869,-0.0357458,0.0,0.0
1470,367.25,44.4829,47.8307,139.418,99.1509,99.1765,0.00744892,0.107196,20.8859,60.3769,-0.00235755,0.0,0.0
1475,368.5,44.4596,47.9,136.446,99.0961,99.2477,0.00745271,0.107985,20.8861,60.3569,-0.0139169,0.0,0.0
1480,369.75,44.1462,47.4561,135.532,99.0573,99.2914,0.0074461,0.108907,20.8855,60.3269,-0.0215044,0.0,0.0
1485,371,44.4405,47.814,137.878,99.0247,99.3657,0.00740296,0.109669,20.8848,60.3069,-0.0313158,0.0,0.0
1490,372.25,44.1962,48.18,142.226,98.9528,99.0858,0.00743873,0.109614,20.8835,60.2969,-0.0122309,0.0,0.0
1495,373.5,44.3628,48.0313,139.805,98.904,99.0831,0.00755694,0.109162,20.8825,60.2568,-0.0164787,0.0,0.0
1500,374.75,44.1973,47.4566,133.885,98.8714,99.1259,0.00771733,0.108869,20.882,60.2468,-0.0234191,0.0,0.0
1505,376,44.1538,47.9495,139.553,98.8116,98.9823,0.00787179,0.108829,20.8817,60.2368,-0.0157184,0.0,0.0
1510,377.25,44.3023,47.7236,136.391,98.7598,98.8633,0.00802763,0.108946,20.8815,60.1968,-0.00953713,0.0,0.0
1515,378.5,43.8523,47.719,135.037,98.7402,98.9704,0.00818241,0.109212,20.8814,60.2068,-0.0212144,0.0,0.0
1520,379.75,44.5729,47.354,136.019,98.6972,98.9075,0.00834076,0.109321,20.8813,60.1968,-0.0193922,0.0,0.0
1525,381,44.3285,48.2205,142.262,98.6625,98.913,0.00849898,0.108775,20.8813,60.1467,-0.0230963,0.0,0.0
1530,382.25,43.8554,47.1527,135.629,98.6136,99.2002,0.00860103,0.108228,20.8812,60.1267,-0.0540226,0.0,0.0
1535,383.5,44.9636,47.7168,136.377,98.6011,98.8204,0.00860086,0.107964,20.8812,60.1367,-0.020241,0.0,0.0
1540,384.75,44.0465,46.8292,141.943,98.5668,98.7375,0.00849936,0.107955,20.8812,60.0666,-0.0157538,0.0,0.0
1545,386,42.6612,45.8323,137.051,98.5238,98.7593,0.00836719,0.108011,20.8822,60.0466,-0.0217499,0.0,0.0
1550,387.25,42.1714,46.179,136.248,98.4987,98.623,0.00831496,0.108214,20.8827,60.0566,-0.0114862,0.0,0.0
1555,388.5,42.5205,45.8127,141.665,98.4874,98.5628,0.00837813,0.108653,20.8828,59.9966,-0.00696909,0.0,0.0
1560,389.75,42.0372,45.2771,138.346,98.4791,98.6563,0.00849065,0.109119,20.8822,59.9766,-0.0163748,0.0,0.0
1565,391,41.8982,46.364,135.635,98.4336,98.6618,0.00858136,0.109202,20.8818,60.0066,-0.0210931,0.0,0.0
1570,392.25,42.1845,45.7104,141.604,98.4298,98.5847,0.00860191,0.108961,20.8815,59.9665,-0.0143247,0.0,0.0
1575,393.5,42.6636,46.1374,135.565,98.4118,98.4972,0.00859627,0.10848,20.8804,59.9165,-0.00789548,0.0,0.0
1580,394.75,42.8765,46.2631,136.332,98.3947,98.5268,0.00847909,0.107872,20.88,59.9065,-0.0122206,0.0,0.0
1585,396,42.2345,46.0659,137.387,98.3734,98.4598,0.00840392,0.10732,20.8803,59.8865,-0.00799492,0.0,0.0
1590,397.25,42.7449,45.9188,136.856,98.3797,98.5177,0.00839189,0.107038,20.8816,59.8364,-0.0127702,0.0,0.0
1595,398.5,42.4675,45.6795,135.398,98.3692,98.6299,0.00844168,0.106627,20.8827,59.8264,-0.0241011,0.0,0.0
1600,399.75,41.9229,45.9015,138.411,98.3487,98.5902,0.00849159,0.106134,20.8833,59.7864,-0.0223327,0.0,0.0
1605,401,42.5537,45.8746,136.414,98.3391,98.6103,0.00851917,0.105603,20.8843,59.7764,-0.025076,0.0,0.0
1610,402.25,42.3322,46.1051,137.059,98.3467,98.4324,0.0085134,0.105063,20.8852,59.7463,-0.00794004,0.0,0.0
1615,403.5,41.8393,45.9791,137.705,98.3538,98.5806,0.00848806,0.104732,20.8855,59.7363,-0.0209842,0.0,0.0
1620,404.75,42.1011,45.9997,136.394,98.3416,98.4566,0.00849079,0.104539,20.8856,59.6963,-0.0106404,0.0,0.0
1625,406,42.8509,45.8619,134.507,98.3383,98.5223,0.00852659,0.104493,20.8856,59.6963,-0.0170221,0.0,0.0
1630,407.25,42.8019,45.6969,139.247,98.3387,98.535,0.00857971,0.104382,20.8856,59.6562,-0.0181633,0.0,0.0
1635,408.5,42.2656,46.2023,138.353,98.3675,98.721,0.00866398,0.104009,20.8856,59.6462,-0.0326735,0.0,0.0
1640,409.75,42.3258,46.524,137.734,98.36,98.4256,0.00870948,0.103662,20.8856,59.6562,-0.00606887,0.0,0.0
1645,411,42.6596,45.8487,136.024,98.3675,98.5596,0.00870329,0.103203,20.8856,59.6162,-0.0177694,0.0,0.0
1650,412.25,42.9795,45.8623,140.066,98.3788,98.5683,0.0086785,0.102542,20.8863,59.6062,-0.0175257,0.0,0.0
1655,413.5,42.3814,45.8915,137.046,98.3772,98.4215,0.00866084,0.10164,20.887,59.5862,-0.00410358,0.0,0.0
1660,414.75,42.2015,45.5436,136.772,98.4018,98.5286,0.00865775,0.100891,20.8882,59.5562,-0.0117319,0.0,0.0
1665,416,42.0185,45.5327,136.156,98.4273,98.6549,0.00866199,0.100304,20.8894,59.5461,-0.0210408,0.0,0.0
1670,417.25,42.5133,45.103,139.968,98.4657,98.6367,0.00866677,0.0999035,20.8904,59.5962,-0.0158016,0.0,0.0
1675,418.5,41.9524,45.7174,137.296,98.4971,98.7758,0.00868884,0.0994812,20.8914,59.5662,-0.0257359,0.0,0.0
1680,419.75,42.7197,45.4281,138.601,98.5092,98.7384,0.00872982,0.0991289,20.892,59.5862,-0.0211676,0.0,0.0
1685,421,42.4309,45.1761,133.994,98.5509,98.6381,0.00875204,0.0987127,20.8923,59.5662,-0.00804762,0.0,0.0
1690,422.25,42.3251,45.7011,139.157,98.5764,98.8332,0.00872797,0.0982127,20.8925,59.5662,-0.0236945,0.0,0.0
1695,423.5,42.0141,45.3301,137.483,98.6007,98.722,0.00866457,0.0977009,20.8926,59.5562,-0.0111976,0.0,0.0
1700,424.75,41.9044,45.1208,138.194,98.6241,98.7416,0.0085708,0.0971462,20.8927,59.5261,-0.0108459,0.0,0.0
1705,426,41.3907,45.3053,134.662,98.6876,98.7283,0.00847718,0.096729,20.8927,59.5261,-0.00376304,0.0,0.0
1710,427.25,42.0921,45.6656,137.361,98.7013,98.7375,0.00838694,0.0963914,20.893,59.4961,-0.00333181,0.0,0.0
1715,428.5,42.0114,45.4393,140.649,98.7331,98.7584,0.00831534,0.0960695,20.8939,59.4761,-0.00233692,0.0,0.0
1720,429.75,41.9253,44.8926,139.415,98.7753,98.8806,0.0082776,0.0957955,20.8944,59.4761,-0.00970778,0.0,0.0
1725,431,41.6863,45.1183,143.969,98.807,99.0571,0.00832343,0.0955477,20.8947,59.4761,-0.0230201,0.0,0.0
1730,432.25,42.0537,45.0935,137.648,98.83,99.1223,0.00839751,0.0951288,20.8949,59.436,-0.026895,0.0,0.0
1735,433.5,41.6755,44.9417,139.724,98.8714,98.9518,0.00849338,0.0947608,20.895,59.426,-0.00740157,0.0,0.0
1740,434.75,42.1023,44.8466,138.122,98.9123,98.9066,0.00867565,0.0942882,20.895,59.406,0.000524421,0.0,0.0
1745,436,41.6065,45.2162,139.369,98.957,99.1496,0.00895463,0.0938816,20.8951,59.436,-0.0177112,0.0,0.0
1750,437.25,41.9981,44.7249,139.503,98.9838,99.1045,0.00930045,0.0934735,20.8951,59.406,-0.011103,0.0,0.0
1755,438.5,41.467,45.1369,139.514,99.0038,99.0589,0.00956404,0.0933936,20.8951,59.376,-0.00506716,0.0,0.0
1760,439.75,41.7817,45.2595,137.135,99.0464,99.1884,0.00971931,0.0934412,20.8951,59.376,-0.0130459,0.0,0.0
1765,441,41.2255,45.0851,137.596,99.0727,99.0416,0.00967787,0.093312,20.8952,59.396,0.00286603,0.0,0.0
1770,442.25,41.4364,45.1583,140.697,99.1016,99.2641,0.00948364,0.0929488,20.8953,59.366,-0.0149234,0.0,0.0
1775,443.5,41.8325,44.9593,139.117,99.1379,99.1182,0.00921306,0.0926396,20.8953,59.356,0.00181309,0.0,0.0
1780,444.75,41.9284,44.7791,136.732,99.1734,99.3165,0.00894216,0.0926275,20.896,59.3359,-0.0131323,0.0,0.0
1785,446,41.882,44.736,137.488,99.201,99.2873,0.00878712,0.0928438,20.8964,59.3259,-0.00792319,0.0,0.0
1790,447.25,41.7894,44.8269,139.023,99.2206,99.3229,0.00875245,0.0931059,20.8966,59.3259,-0.00938279,0.0,0.0
1795,448.5,41.8302,44.499,144.58,99.2599,99.5303,0.00876155,0.0932491,20.8967,59.2859,-0.0247832,0.0,0.0
1800,449.75,41.8218,44.8294,136.01,99.2912,99.4907,0.00874885,0.0932215,20.8968,59.2559,-0.0182775,0.0,0.0
1805,451,41.4952,44.0275,142.357,99.3138,99.3699,0.00871367,0.0931906,20.8968,59.2659,-0.00513995,0.0,0.0
1810,452.25,42.0634,44.2421,138.196,99.3489,99.446,0.0086934,0.0929523,20.8968,59.2559,-0.00889859,0.0,0.0
1815,453.5,42.0865,44.592,136.691,99.371,99.4218,0.00872378,0.0925085,20.8969,59.2359,-0.00465542,0.0,0.0
1820,454.75,41.2835,44.2612,136.264,99.3969,99.5431,0.00879487,0.092126,20.8969,59.2359,-0.0133851,0.0,0.0
1825,456,41.5607,44.5481,140.582,99.4212,99.7314,0.00892253,0.0916608,20.8975,59.2459,-0.0283795,0.0,0.0
1830,457.25,41.2325,44.4191,142.25,99.4136,99.3589,0.00907866,0.0915121,20.8982,59.1958,0.00501496,0.0,0.0
1835,458.5,40.8411,44.5097,137.874,99.4562,99.5664,0.00920697,0.0917352,20.8986,59.1658,-0.010079,0.0,0.0
1840,459.75,41.1826,44.3561,137.651,99.4696,99.6553,0.00921503,0.0922204,20.8988,59.1257,-0.016984,0.0,0.0
1845,461,41.7076,44.6469,133.764,99.4901,99.617,0.00914451,0.092933,20.899,59.1358,-0.0116091,0.0,0.0
1850,462.25,41.152,44.3062,139.024,99.4989,99.7661,0.00911263,0.0936857,20.8991,59.1358,-0.0244277,0.0,0.0
1855,463.5,41.3733,45.2507,137.611,99.5189,99.6338,0.00912204,0.0941904,20.8983,59.0957,-0.0105127,0.0,0.0
1860,464.75,41.8093,44.9588,136.171,99.5302,99.6936,0.0091905,0.0944611,20.897,59.0857,-0.0149386,0.0,0.0
1865,466,41.2126,44.7412,141.859,99.5402,99.6685,0.0091708,0.0943135,20.8958,59.0957,-0.0117308,0.0,0.0
1870,467.25,41.5248,44.9015,137.169,99.5427,99.6617,0.00893372,0.0937906,20.8954,59.0957,-0.0108752,0.0,0.0
1875,468.5,41.1995,43.6384,137.315,99.5644,99.5632,0.00875479,0.0935019,20.8952,59.0857,0.000116179,0.0,0.0
1880,469.75,41.6381,44.9088,134.165,99.5699,99.7861,0.0085407,0.0935729,20.8961,59.0657,-0.01976,0.0,0.0
1885,471,41.4454,44.7869,140.196,99.5741,99.5636,0.00842205,0.0938918,20.8966,59.1057,0.000954359,0.0,0.0
1890,472.25,41.462,45.0868,138.002,99.582,99.6279,0.00837855,0.0943405,20.8969,59.1358,-0.00419917,0.0,0.0
1895,473.5,42.1429,44.5213,136.125,99.5887,99.6461,0.00834267,0.0944876,20.897,59.0757,-0.00525456,0.0,0.0
1900,474.75,41.1321,44.9462,137.796,99.569,99.9138,0.00827743,0.0944335,20.8971,59.0457,-0.0314814,0.0,0.0
1905,476,41.2984,44.5956,140.121,99.577,99.6694,0.00820027,0.0942949,20.8966,59.0257,-0.00844973,0.0,0.0
1910,477.25,41.5649,44.7569,139.602,99.5665,99.6781,0.00818496,0.0940107,20.8956,59.1057,-0.0101975,0.0,0.0
1915,478.5,41.6523,44.9142,138.649,99.5607,99.8591,0.00825013,0.0937168,20.895,59.0257,-0.0272566,0.0,0.0
1920,479.75,41.6022,45.0807,139.818,99.5365,99.7196,0.00836964,0.0934795,20.8946,59.0056,-0.0167392,0.0,0.0
1925,481,41.7629,44.6108,140.303,99.5214,99.617,0.00845517,0.0933052,20.8944,58.9156,-0.00874154,0.0,0.0
1930,482.25,42.1429,44.5496,137.458,99.5135,99.5376,0.00848842,0.0931219,20.8943,59.0257,-0.00221039,0.0,0.0
1935,483.5,41.6557,44.2531,135.452,99.4867,99.7287,0.00849053,0.0928389,20.8942,58.9856,-0.0221232,0.0,0.0
1940,484.75,41.4433,44.495,137.28,99.4496,99.41,0.00848799,0.092608,20.8946,58.9456,0.0036269,0.0,0.0
1945,486,41.3052,44.2155,136.177,99.4362,99.6484,0.00848102,0.0922485,20.8954,58.9055,-0.0194199,0.0,0.0
1950,487.25,41.3965,44.4365,136.703,99.4136,99.5413,0.0084695,0.0921102,20.8958,58.8955,-0.0116873,0.0,0.0
1955,488.5,41.3144,44.5023,136.804,99.3773,99.5905,0.00844887,0.0924516,20.8961,58.8855,-0.0195228,0.0,0.0
1960,489.75,41.8198,44.5483,136.016,99.3472,99.554,0.00843669,0.0930937,20.8962,58.8655,-0.0189439,0.0,0.0
1965,491,41.1957,44.4244,135.852,99.3209,99.5499,0.00843183,0.0938573,20.8957,58.8555,-0.0209815,0.0,0.0
1970,492.25,41.4311,44.4068,136.789,99.2992,99.5367,0.00842756,0.0946118,20.895,58.9156,-0.0217646,0.0,0.0
1975,493.5,41.2293,44.5072,137.812,99.2432,99.1989,0.00840323,0.0951491,20.8946,58.9156,0.00406863,0.0,0.0
1980,494.75,40.8935,44.4799,142.868,99.1989,99.2841,0.00831678,0.0951104,20.8936,58.8955,-0.00782213,0.0,0.0
1985,496,41.2067,44.292,136.667,99.1905,99.3475,0.00823445,0.0951999,20.8931,58.8555,-0.0144024,0.0,0.0
1990,497.25,41.095,44.3076,137.512,99.1212,99.275,0.00820373,0.095456,20.8934,58.8555,-0.0141235,0.0,0.0
1995,498.5,41.1474,44.6613,138.363,99.0594,99.0917,0.00820909,0.0957804,20.8928,58.8054,-0.00297446,0.0,0.0
2000,499.75,41.5945,44.8534,140.701,99.0427,99.0753,0.00830453,0.0958944,20.8924,58.7654,-0.0030027,0.0,0.0
2005,501,41.4256,44.2822,138.766,99.0059,99.1533,0.00855328,0.0958231,20.8922,58.8155,-0.0135482,0.0,0.0
2010,502.25,41.6337,44.9694,135.378,98.9863,99.2212,0.00884334,0.0955093,20.892,58.8155,-0.0215937,0.0,0.0
2015,503.5,41.1452,44.6412,135.831,98.9524,99.1501,0.00903635,0.0951304,20.8919,58.7854,-0.0181763,0.0,0.0
2017,504,41.311,44.3931,140.525,98.9608,99.1551,0.00908095,0.0949875,20.8919,58.7854,-0.0178673,0.0,0.0