File: 01_Data/Cellulose_Insulation/Cone/Cellulose_Insulation_Cone_HF50Scan_230620_R3.csv
Names,Time,Stack TC,Smoke TC,Exh Press,Smoke Comp,Smoke Meas,CO Meter,CO2 Meter,O2 Meter,Sample Mass,Ext Coeff,Start Test,Flame Verif
Chan Gain,,500,500,1,1,1,1,1,1,1,1,1.0,1.0
Offset,,0,0,0.245636,0,0,0,0,0,0,0,0.0,0.0
Gain,,1,1,25.011,13.7909,15.0732,1,1,1,1.00094,1.03834,1.0,1.0
Units,sec,C,C,Pa,%,%,%,%,%,g,/m,,
Baseline,,35.3199,38.263,142.699,99.5556,99.4912,0.000284289,0.0476749,20.9546,-445.513,0.00590309,,
5,1,32.9845,33.9677,142.036,100.842,100.332,0.000432928,0.0534126,20.9511,79.1546,0.0462424,1.0,0.0
10,2.25,33.1658,34.6837,130.415,100.852,102.381,0.000485381,0.0543628,20.9511,78.7843,-0.137085,0.0,1.0
15,3.5,33.5209,35.6348,130.283,100.876,101.389,0.000512194,0.0552481,20.951,78.5841,-0.0461815,0.0,1.0
20,4.75,34.9705,39.5569,128.094,100.873,102.556,0.000474841,0.0558477,20.95,78.4139,-0.150721,0.0,1.0
25,6,35.038,41.9656,123.152,100.849,101.272,0.000389887,0.0559164,20.9495,78.1437,-0.0381116,0.0,1.0
30,7.25,35.7752,43.256,126.709,100.867,101.205,0.000311274,0.0555275,20.9486,77.8834,-0.0304317,0.0,0.0
35,8.5,36.9182,45.3906,127.76,100.867,100.918,0.000254333,0.0555022,20.9493,77.6933,-0.00464076,0.0,0.0
40,9.75,37.7641,46.8901,128.355,100.858,101.686,0.000256581,0.0654447,20.9498,77.5231,-0.0745095,0.0,0.0
45,11,37.9864,48.46,124.81,100.862,101.14,0.000336887,0.101274,20.9504,77.3629,-0.0250483,0.0,0.0
50,12.25,39.6017,49.7837,132.253,100.867,101.201,0.000576601,0.159804,20.9463,77.1828,-0.0300586,0.0,0.0
55,13.5,40.0862,50.6983,133.624,100.862,101.408,0.000897559,0.232054,20.922,77.0226,-0.0492464,0.0,0.0
60,14.75,40.8265,50.9506,131.807,100.854,101.952,0.00128439,0.291372,20.8501,76.8725,-0.0985948,0.0,0.0
65,16,41.3788,51.4468,130.74,100.852,101.497,0.00168229,0.334367,20.7569,76.6823,-0.0580916,0.0,0.0
70,17.25,41.8942,52.4969,132.615,100.872,101.396,0.00193915,0.357176,20.693,76.5722,-0.0472194,0.0,0.0
75,18.5,42.1284,52.9082,128.842,100.865,101.425,0.00224719,0.373624,20.6351,76.392,-0.0504713,0.0,0.0
80,19.75,42.4808,53.8626,129.964,100.853,101.631,0.00253478,0.379445,20.5993,76.2219,-0.0699413,0.0,0.0
85,21,43.1835,53.3036,131.108,100.859,101.125,0.00273554,0.376905,20.5785,76.1118,-0.0239884,0.0,0.0
90,22.25,43.0806,54.1422,130.128,100.862,101.511,0.00284363,0.370854,20.5701,75.9917,-0.0584965,0.0,0.0
95,23.5,43.6683,53.8735,128.337,100.87,101.575,0.00283357,0.361815,20.5728,75.8615,-0.0633929,0.0,0.0
100,24.75,44.1518,54.0759,130.876,100.852,101.37,0.00273843,0.352197,20.5788,75.7014,-0.0466502,0.0,0.0
105,26,44.5755,54.25,136.97,100.851,101.36,0.00256208,0.341438,20.5893,75.5813,-0.0458956,0.0,0.0
110,27.25,43.3079,54.7095,134.091,100.851,101.368,0.00234057,0.329206,20.6039,75.5012,-0.0466404,0.0,0.0
115,28.5,44.3331,54.7392,136.812,100.84,101.43,0.00219271,0.32149,20.6154,75.351,-0.0531238,0.0,0.0
120,29.75,45.0382,54.3864,134.292,100.833,101.451,0.00202978,0.313925,20.6275,75.251,-0.0556322,0.0,0.0
125,31,45.0842,54.6968,132.634,100.834,101.573,0.00187974,0.305782,20.6392,75.1509,-0.0665347,0.0,0.0
130,32.25,45.3574,54.6754,134.409,100.84,101.237,0.00178972,0.298815,20.649,75.0307,-0.0357616,0.0,0.0
135,33.5,45.3635,55.2464,130.305,100.828,101.34,0.00174638,0.290791,20.6578,74.9206,-0.0461302,0.0,0.0
140,34.75,45.7471,55.1855,129.371,100.817,101.723,0.00172351,0.283448,20.6671,74.7605,-0.0815304,0.0,0.0
145,36,45.8566,54.8312,135.242,100.825,101.458,0.00172721,0.277054,20.6778,74.6404,-0.0570121,0.0,0.0
150,37.25,45.7332,54.9286,134.115,100.831,101.347,0.00175124,0.271837,20.6862,74.4902,-0.0464865,0.0,0.0
155,38.5,46.3169,55.1875,136.306,100.811,101.126,0.00178648,0.266272,20.6946,74.4402,-0.028447,0.0,0.0
160,39.75,46.2615,54.5885,131.464,100.797,101.497,0.00181382,0.261738,20.7029,74.29,-0.0630338,0.0,0.0
165,41,46.0539,54.7926,133.039,100.809,101.468,0.00184151,0.257987,20.7097,74.22,-0.0593648,0.0,0.0
170,42.25,46.2951,53.6907,131.405,100.805,101.253,0.00187675,0.254815,20.7153,74.1299,-0.0403629,0.0,0.0
175,43.5,46.0966,54.1815,140.203,100.781,101.39,0.00190385,0.251536,20.7198,74.0598,-0.0548566,0.0,0.0
180,44.75,46.31,54.3179,134.162,100.791,101.518,0.00194773,0.247277,20.7236,73.9197,-0.0655034,0.0,0.0
185,46,46.5097,54.5621,130.919,100.788,101.322,0.00203017,0.242689,20.7271,73.8396,-0.0481673,0.0,0.0
190,47.25,46.4618,54.1318,134.884,100.762,101.368,0.00215238,0.238282,20.7314,73.7095,-0.0546256,0.0,0.0
195,48.5,46.6251,54.1773,132.008,100.742,101.272,0.0022711,0.234452,20.737,73.6094,-0.0478099,0.0,0.0
200,49.75,46.2768,54.3072,137.351,100.737,101.23,0.00236326,0.23146,20.7428,73.5594,-0.0444623,0.0,0.0
205,51,46.3405,54.1717,134.074,100.727,101.197,0.0024311,0.228847,20.748,73.4793,-0.0423545,0.0,0.0
210,52.25,46.6248,53.9012,135.938,100.716,101.096,0.00247998,0.226092,20.751,73.3191,-0.0343098,0.0,0.0
215,53.5,46.4159,53.7888,135.221,100.695,101.029,0.00250479,0.223577,20.7528,73.2691,-0.0302013,0.0,0.0
220,54.75,46.3893,53.1715,134.715,100.694,101.053,0.00251043,0.220572,20.7549,73.189,-0.0323923,0.0,0.0
225,56,45.7602,53.275,135.619,100.66,100.971,0.00252664,0.217774,20.759,73.129,-0.0281317,0.0,0.0
230,57.25,46.6086,53.2397,135.971,100.643,101.077,0.00256397,0.214808,20.7631,73.0088,-0.0391932,0.0,0.0
235,58.5,46.2651,53.115,135.23,100.639,101.149,0.00259465,0.211773,20.7667,72.9288,-0.0461215,0.0,0.0
240,59.75,46.5318,53.3416,133.282,100.632,101.332,0.00261146,0.209301,20.7708,72.8887,-0.0631611,0.0,0.0
245,61,46.4846,53.1162,135.154,100.616,100.933,0.00262106,0.207403,20.7748,72.7586,-0.0286523,0.0,0.0
250,62.25,46.4872,52.9114,135.736,100.587,101.048,0.00266594,0.205876,20.7779,72.6585,-0.0416111,0.0,0.0
255,63.5,46.9048,53.4056,136.681,100.581,100.89,0.00278259,0.203836,20.7802,72.5784,-0.0279079,0.0,0.0
260,64.75,46.613,52.4962,137.654,100.558,101.014,0.00294021,0.201627,20.7826,72.5084,-0.0411721,0.0,0.0
265,66,46.2001,52.6225,135.344,100.535,101.015,0.00309923,0.199679,20.7844,72.3983,-0.0433554,0.0,0.0
270,67.25,46.4632,52.6734,135.65,100.522,100.748,0.00319991,0.198368,20.7861,72.2982,-0.0204455,0.0,0.0
275,68.5,46.68,52.6356,135.538,100.484,101.115,0.00322997,0.197421,20.789,72.2681,-0.0570006,0.0,0.0
280,69.75,46.6006,52.4701,136.326,100.475,100.972,0.00318485,0.196393,20.791,72.128,-0.0449102,0.0,0.0
285,71,46.3917,52.4153,136.122,100.441,100.923,0.00312981,0.195419,20.792,72.108,-0.04356,0.0,0.0
290,72.25,46.5555,52.3056,138.518,100.413,100.705,0.00307827,0.193938,20.7938,72.0079,-0.02638,0.0,0.0
295,73.5,46.3479,52.247,137.125,100.403,101.042,0.00307538,0.192463,20.7948,71.9178,-0.0577824,0.0,0.0
300,74.75,46.7223,52.3495,137.167,100.396,100.875,0.00313559,0.191079,20.7951,71.8477,-0.043326,0.0,0.0
305,76,46.6516,52.0457,135.404,100.349,100.904,0.00321944,0.189399,20.7971,71.7777,-0.0502999,0.0,0.0
310,77.25,46.5973,52.0956,133.094,100.336,100.623,0.00329244,0.187928,20.7983,71.6876,-0.0259983,0.0,0.0
315,78.5,46.1656,51.9186,135.781,100.312,100.709,0.00330208,0.186381,20.7999,71.5775,-0.0359627,0.0,0.0
320,79.75,46.4558,52.5873,138.104,100.267,100.515,0.00328072,0.184939,20.8013,71.5274,-0.0224791,0.0,0.0
325,81,46.5991,52.8962,136.208,100.232,100.597,0.00327772,0.183929,20.8036,71.4273,-0.0330663,0.0,0.0
330,82.25,46.8667,51.9095,135.545,100.217,100.639,0.00333604,0.183541,20.8049,71.3873,-0.0382364,0.0,0.0
335,83.5,46.7461,52.0999,135.042,100.235,100.46,0.00339216,0.183554,20.8057,71.3373,-0.0204619,0.0,0.0
340,84.75,46.6128,51.5528,136.091,100.158,100.694,0.00343985,0.183538,20.8064,71.2372,-0.048587,0.0,0.0
345,86,46.7512,51.8778,137.773,100.123,100.382,0.00352099,0.183364,20.8069,71.1471,-0.0234675,0.0,0.0
350,87.25,46.0977,51.8065,141.081,100.103,100.392,0.00365531,0.182953,20.8073,71.077,-0.0262242,0.0,0.0
355,88.5,46.0522,51.9186,136.591,100.071,100.559,0.00375731,0.182199,20.8074,71.007,-0.0442713,0.0,0.0
360,89.75,46.4001,51.8387,135.369,100.014,100.431,0.0037957,0.180991,20.8075,70.8868,-0.0379725,0.0,0.0
365,91,46.2357,52.0554,137.563,99.9601,100.461,0.00379466,0.179576,20.8081,70.8368,-0.0455524,0.0,0.0
370,92.25,46.049,51.5141,135.058,99.9475,100.575,0.00380153,0.178237,20.8098,70.7367,-0.0569984,0.0,0.0
375,93.5,46.3813,51.4977,133.824,99.9012,100.402,0.00382978,0.177194,20.8109,70.7067,-0.0455409,0.0,0.0
380,94.75,46.5033,51.5226,135.1,99.8431,100.314,0.00386186,0.176375,20.8117,70.6266,-0.0428645,0.0,0.0
385,96,46.6949,51.7713,140.727,99.7981,100.226,0.00387282,0.175809,20.8126,70.5765,-0.0389921,0.0,0.0
390,97.25,46.3537,52.1787,136.42,99.7607,100.397,0.00386473,0.175343,20.8131,70.4664,-0.0579075,0.0,0.0
395,98.5,46.563,51.8373,131.592,99.7051,100.347,0.00386276,0.174555,20.8134,70.4064,-0.0584315,0.0,0.0
400,99.75,46.3399,51.5798,135.004,99.6504,99.9107,0.00387867,0.173698,20.8136,70.3764,-0.0237625,0.0,0.0
405,101,46.4616,51.8624,131.099,99.6188,100.068,0.00392892,0.172868,20.8142,70.2963,-0.0409365,0.0,0.0
410,102.25,46.2964,51.784,137.638,99.5814,100.121,0.00399137,0.172219,20.8161,70.2162,-0.0492595,0.0,0.0
415,103.5,46.5994,51.7685,134.692,99.5288,99.8983,0.00406007,0.171733,20.8179,70.1161,-0.0337545,0.0,0.0
420,104.75,46.3904,50.9402,133.166,99.4833,99.9033,0.00416528,0.17125,20.8189,70.0461,-0.0383765,0.0,0.0
425,106,46.1018,51.5341,134.702,99.4437,99.7442,0.00429601,0.170731,20.8195,69.976,-0.0274771,0.0,0.0
430,107.25,46.652,51.6629,136.086,99.408,99.7732,0.00443536,0.170215,20.8201,69.9059,-0.0333998,0.0,0.0
435,108.5,46.1714,51.3911,139.329,99.3646,99.694,0.00455585,0.169331,20.8212,69.8459,-0.0301474,0.0,0.0
440,109.75,46.3783,51.1645,137.57,99.3234,99.9921,0.00462844,0.168352,20.8218,69.7458,-0.0611206,0.0,0.0
445,111,46.5551,51.1935,133.598,99.3015,99.809,0.00465036,0.1674,20.8226,69.6657,-0.0464358,0.0,0.0
450,112.25,46.2715,50.8902,135.545,99.2733,99.5197,0.00466462,0.16617,20.8236,69.6757,-0.0225803,0.0,0.0
455,113.5,46.1372,50.9022,134.726,99.2253,99.6048,0.0047042,0.164804,20.825,69.5556,-0.0347686,0.0,0.0
460,114.75,45.9857,50.3482,135.858,99.2068,99.5951,0.00475742,0.163483,20.826,69.4855,-0.035585,0.0,0.0
465,116,45.6678,51.4248,138.458,99.1937,99.7837,0.00478201,0.161956,20.8272,69.4455,-0.0540144,0.0,0.0
470,117.25,46.0965,51.1545,136.434,99.158,99.5915,0.00477894,0.160779,20.829,69.3554,-0.0397314,0.0,0.0
475,118.5,46.0865,50.9112,136.177,99.1437,99.4815,0.00479462,0.160075,20.8302,69.3154,-0.0309862,0.0,0.0
480,119.75,45.7364,50.7663,136.496,99.1277,99.5243,0.00484203,0.159703,20.8319,69.2153,-0.0363721,0.0,0.0
485,121,46.0736,50.2383,137.893,99.1302,99.4075,0.00492278,0.159494,20.8329,69.1452,-0.0254402,0.0,0.0
490,122.25,46.144,50.7932,137.618,99.1096,99.568,0.00500719,0.159272,20.8335,69.1052,-0.0420327,0.0,0.0
495,123.5,46.0316,51.0289,138.75,99.0999,99.6361,0.00509496,0.158866,20.8338,69.0951,-0.0491487,0.0,0.0
500,124.75,46.2152,50.6247,134.907,99.1125,99.833,0.00520268,0.158134,20.834,69.0151,-0.0659682,0.0,0.0
505,126,46.2771,50.9806,133.941,99.1163,99.5666,0.00531317,0.157423,20.8342,68.915,-0.0412883,0.0,0.0
510,127.25,45.9849,50.5232,134.49,99.1171,99.6862,0.00540528,0.156703,20.8346,68.8349,-0.0521453,0.0,0.0
515,128.5,45.4156,50.7486,136.052,99.1289,99.4493,0.00548504,0.155983,20.8348,68.6848,-0.0293908,0.0,0.0
520,129.75,46.1086,50.4843,140.182,99.1584,99.4958,0.00556032,0.155458,20.835,68.6948,-0.0309388,0.0,0.0
525,131,45.9996,50.4723,139.481,99.1693,99.4728,0.00562086,0.15514,20.8357,68.6647,-0.0278284,0.0,0.0
530,132.25,45.8333,50.2424,136.783,99.1954,99.6283,0.00565562,0.155057,20.8364,68.6347,-0.0396567,0.0,0.0
535,133.5,45.3909,50.1974,139.618,99.2198,99.6531,0.00568444,0.154956,20.8368,68.6047,-0.0396867,0.0,0.0
540,134.75,45.8449,50.4774,137.041,99.2632,99.4921,0.005726,0.154657,20.8371,68.4545,-0.0209804,0.0,0.0
545,136,45.8655,50.346,138.769,99.3019,99.5611,0.00576909,0.153747,20.8373,68.4345,-0.0237429,0.0,0.0
550,137.25,45.6939,50.2393,137.396,99.3187,99.7014,0.00573758,0.152344,20.8371,68.3444,-0.0350253,0.0,0.0
555,138.5,45.0605,50.4128,134.539,99.3714,99.8458,0.00565622,0.151043,20.8369,68.3144,-0.0433876,0.0,0.0
560,139.75,45.7149,50.2763,138.219,99.4307,99.6881,0.00556574,0.150092,20.8387,68.2644,-0.0235459,0.0,0.0
565,141,45.3626,50.0025,139.965,99.4753,100.159,0.00553248,0.149515,20.8397,68.2443,-0.0623958,0.0,0.0
570,142.25,45.6974,50.0952,135.742,99.5001,100.009,0.00554448,0.14915,20.8404,68.0942,-0.0464756,0.0,0.0
575,143.5,45.2894,50.2688,134.618,99.5687,100.04,0.00553949,0.148804,20.8414,68.0542,-0.0430462,0.0,0.0
580,144.75,45.4766,50.4524,137.319,99.6306,99.8868,0.00551747,0.148321,20.8423,67.9941,-0.0233891,0.0,0.0
585,146,45.4957,50.0786,135.384,99.6676,100.155,0.00550686,0.147912,20.8428,67.914,-0.0444257,0.0,0.0
590,147.25,45.5227,50.2589,134.497,99.7253,100.494,0.00553846,0.146495,20.8431,67.904,-0.0699791,0.0,0.0
595,148.5,45.1682,50.1498,134.889,99.7956,100.181,0.00560646,0.145347,20.8441,67.824,-0.0350831,0.0,0.0
600,149.75,45.0676,50.0184,140.104,99.8364,100.283,0.00563298,0.1447,20.8448,67.834,-0.0406797,0.0,0.0
605,151,45.6391,50.0088,136.151,99.8835,100.331,0.00562448,0.144535,20.8458,67.7939,-0.0407244,0.0,0.0
610,152.25,45.3185,49.8932,137.287,99.9467,100.413,0.00563152,0.144393,20.8468,67.7038,-0.0423998,0.0,0.0
615,153.5,45.4056,50.0471,135.522,100.009,100.366,0.00569055,0.1441,20.8474,67.6938,-0.0325067,0.0,0.0
620,154.75,45.1715,50.2512,135.984,100.044,100.499,0.00575948,0.143745,20.8477,67.6138,-0.0413472,0.0,0.0
625,156,45.6156,49.8827,133.856,100.078,100.65,0.00582098,0.143372,20.8479,67.5537,-0.0519432,0.0,0.0
630,157.25,45.5364,49.875,134.179,100.131,100.564,0.00587145,0.142718,20.848,67.4736,-0.0393715,0.0,0.0
635,158.5,45.2341,50.0934,136.602,100.178,100.85,0.00592916,0.142062,20.8485,67.3935,-0.0608796,0.0,0.0
640,159.75,45.648,49.9092,134.976,100.203,100.895,0.00598275,0.141692,20.8489,67.3135,-0.0627337,0.0,0.0
645,161,45.2832,50.2183,138.226,100.24,100.536,0.00600566,0.141461,20.8499,67.2334,-0.0269195,0.0,0.0
650,162.25,45.6253,49.952,138.251,100.262,100.678,0.00597257,0.141189,20.8505,67.2434,-0.03764,0.0,0.0
655,163.5,45.1324,49.7333,136.412,100.293,100.665,0.0059423,0.14086,20.8516,67.1633,-0.0337638,0.0,0.0
660,164.75,44.0863,50.0981,138.423,100.302,100.777,0.0059324,0.140305,20.8525,67.0933,-0.0430352,0.0,0.0
665,166,44.8294,49.6862,138.663,100.319,100.641,0.00596194,0.1398,20.853,67.0032,-0.0292302,0.0,0.0
670,167.25,45.5112,49.7205,134.481,100.333,100.917,0.00604262,0.139729,20.8533,67.0032,-0.052872,0.0,0.0
675,168.5,45.5859,49.9187,135.901,100.336,100.811,0.00611844,0.14006,20.8532,66.9631,-0.0430129,0.0,0.0
680,169.75,45.5086,49.7153,135.676,100.322,100.841,0.00616735,0.140034,20.853,66.7629,-0.0469744,0.0,0.0
685,171,45.5934,50.0614,133.556,100.325,100.761,0.00614976,0.139444,20.853,66.7129,-0.0395166,0.0,0.0
690,172.25,44.9085,49.8151,137.836,100.332,100.87,0.00614626,0.138832,20.8529,66.6428,-0.0487541,0.0,0.0
695,173.5,45.1063,49.7294,138.628,100.315,100.631,0.0062263,0.138518,20.8529,66.6328,-0.0285782,0.0,0.0
700,174.75,45.0169,50.1313,137.545,100.293,100.681,0.00638533,0.138346,20.8538,66.6128,-0.0351447,0.0,0.0
705,176,45.1428,48.6882,135.505,100.286,100.744,0.00654764,0.138096,20.8544,66.5527,-0.0414901,0.0,0.0
710,177.25,45.1549,49.1243,136.548,100.269,100.678,0.00667725,0.137923,20.8547,66.5127,-0.0370284,0.0,0.0
715,178.5,45.4463,49.3017,133.178,100.243,100.688,0.00673717,0.137495,20.855,66.4126,-0.0403563,0.0,0.0
720,179.75,45.2664,49.398,134.656,100.224,100.697,0.00673453,0.137263,20.8554,66.3726,-0.0429092,0.0,0.0
725,181,45.364,49.4237,137.319,100.227,100.793,0.0067328,0.137727,20.8557,66.4326,-0.0512122,0.0,0.0
730,182.25,45.1453,49.2698,138.039,100.216,100.69,0.00677463,0.137951,20.8558,66.4026,-0.0429703,0.0,0.0
735,183.5,44.9842,49.6583,139.859,100.14,100.553,0.00687104,0.137787,20.8559,66.3125,-0.0374885,0.0,0.0
740,184.75,45.3512,49.545,139.628,100.143,101.027,0.00694324,0.137608,20.8559,66.2425,-0.0800394,0.0,0.0
745,186,45.3716,49.6277,140.98,100.136,100.572,0.00699368,0.137425,20.856,66.2324,-0.0396202,0.0,0.0
750,187.25,45.2201,49.4053,138.782,100.108,100.866,0.0069824,0.13727,20.856,66.1524,-0.0686492,0.0,0.0
755,188.5,44.9457,49.3791,135.581,100.083,100.96,0.00688861,0.136863,20.8558,66.1223,-0.0795378,0.0,0.0
760,189.75,45.4296,49.5933,136.654,100.077,100.49,0.00679455,0.136595,20.8556,66.0823,-0.0375631,0.0,0.0
765,191,45.489,49.7983,137.396,100.065,100.578,0.00669736,0.136287,20.8554,66.0122,-0.046516,0.0,0.0
770,192.25,45.6433,49.2988,139.503,100.039,100.415,0.00671031,0.136008,20.8553,65.9622,-0.0341327,0.0,0.0
775,193.5,44.6393,49.5233,135.582,100.018,100.321,0.00679121,0.135994,20.855,65.8721,-0.0276133,0.0,0.0
780,194.75,44.7747,49.7415,135.542,100,100.623,0.00697519,0.136008,20.8541,65.8421,-0.0565368,0.0,0.0
785,196,45.4622,50.197,141.635,99.9829,100.375,0.00711643,0.135795,20.8542,65.8221,-0.0356799,0.0,0.0
790,197.25,45.1476,49.6949,137.03,99.9517,100.413,0.00717598,0.135522,20.8546,65.732,-0.041898,0.0,0.0
795,198.5,45.0954,48.9237,138.232,99.9437,100.488,0.00714554,0.13542,20.8548,65.742,-0.0494669,0.0,0.0
800,199.75,44.9422,49.029,138.848,99.9467,100.315,0.00702967,0.135449,20.8552,65.6919,-0.0334663,0.0,0.0
805,201,44.9557,49.3698,133.388,99.9315,100.402,0.00689709,0.135484,20.8555,65.6219,-0.042738,0.0,0.0
810,202.25,45.1689,49.0208,136.173,99.9071,100.212,0.00684972,0.135268,20.8557,65.5718,-0.0277532,0.0,0.0
815,203.5,45.0131,49.6562,136.141,99.8941,100.317,0.00688296,0.134528,20.8559,65.5418,-0.0384703,0.0,0.0
820,204.75,43.6659,48.758,136.973,99.9042,100.505,0.00693668,0.134,20.8561,65.4817,-0.0546158,0.0,0.0
825,206,44.4224,49.6584,132.848,99.8877,100.258,0.00697078,0.133888,20.857,65.4317,-0.0337409,0.0,0.0
830,207.25,45.1399,48.8535,134.829,99.8688,100.385,0.006982,0.134535,20.8576,65.3917,-0.046994,0.0,0.0
835,208.5,45.287,49.7207,135.865,99.8722,100.73,0.00702686,0.135856,20.8579,65.3116,-0.0778949,0.0,0.0
840,209.75,45.1253,49.3051,134.484,99.889,100.431,0.00711712,0.136953,20.8568,65.3016,-0.0492824,0.0,0.0
845,211,45.0521,49.531,141.889,99.8869,100.362,0.00720469,0.137706,20.8547,65.2415,-0.0432567,0.0,0.0
850,212.25,45.0928,49.2874,137.324,99.8743,100.565,0.00725016,0.138145,20.8534,65.1915,-0.0627583,0.0,0.0
855,213.5,45.2977,49.3621,134.997,99.897,100.289,0.00720089,0.13813,20.8526,65.1514,-0.0356537,0.0,0.0
860,214.75,45.2441,49.5572,136.5,99.8953,100.618,0.00707655,0.13784,20.8521,65.0413,-0.0656292,0.0,0.0
865,216,44.7935,49.2199,133.212,99.8894,100.471,0.00697411,0.137524,20.8524,65.0013,-0.0529146,0.0,0.0
870,217.25,44.3907,49.4587,139.234,99.8776,100.427,0.00692446,0.137157,20.8531,64.9913,-0.0499855,0.0,0.0
875,218.5,45.2553,49.6546,137.04,99.8869,100.361,0.0069184,0.136763,20.8535,64.9713,-0.0431732,0.0,0.0
880,219.75,45.2873,49.1835,135.83,99.9012,100.365,0.00693549,0.136604,20.8538,64.8912,-0.0422023,0.0,0.0
885,221,44.3197,49.4238,138.262,99.8802,100.342,0.00694913,0.136635,20.8543,64.8211,-0.0420338,0.0,0.0
890,222.25,45.2963,49.4813,137.73,99.8894,100.154,0.00691725,0.136427,20.8541,64.7911,-0.0240956,0.0,0.0
895,223.5,45.3299,49.1426,137.935,99.8995,100.229,0.00684917,0.136013,20.854,64.731,-0.0300324,0.0,0.0
900,224.75,45.2015,49.3168,136.732,99.9016,100.504,0.00675821,0.135761,20.8546,64.6109,-0.0547206,0.0,0.0
905,226,45.2255,48.988,134.333,99.8903,100.188,0.00664086,0.135708,20.855,64.6309,-0.0270725,0.0,0.0
910,227.25,44.6619,49.0307,134.714,99.9096,100.378,0.0065371,0.135763,20.8553,64.5609,-0.0425618,0.0,0.0
915,228.5,44.8366,49.4088,137.006,99.8865,100.282,0.0064957,0.135911,20.8554,64.4608,-0.0360282,0.0,0.0
920,229.75,45.254,49.4079,137.18,99.8907,100.251,0.00650829,0.136096,20.8555,64.4708,-0.0327612,0.0,0.0
925,231,45.2552,49.2156,135.725,99.897,100.462,0.00651911,0.135889,20.8555,64.4308,-0.0513896,0.0,0.0
930,232.25,45.0098,48.8504,133.696,99.9063,100.905,0.00647891,0.135448,20.8556,64.3807,-0.0906192,0.0,0.0
935,233.5,44.7801,49.4985,137.534,99.9168,100.339,0.00641118,0.135089,20.8556,64.3507,-0.0384027,0.0,0.0
940,234.75,44.8651,49.7199,131.965,99.9096,100.429,0.00635309,0.135364,20.8558,64.3006,-0.0472357,0.0,0.0
945,236,45.3518,49.4132,138.163,99.9151,100.493,0.0063168,0.135887,20.8567,64.2406,-0.052534,0.0,0.0
950,237.25,45.3433,48.7824,135.197,99.9471,100.515,0.00630044,0.135944,20.8566,64.2306,-0.0515785,0.0,0.0
955,238.5,45.0218,49.6941,137.469,99.9492,100.257,0.00629669,0.135805,20.8564,64.1505,-0.0279727,0.0,0.0
960,239.75,44.76,49.7686,139.047,99.9547,100.35,0.00630352,0.135496,20.8571,64.0504,-0.0359529,0.0,0.0
965,241,45.4991,49.3054,138.384,99.9509,100.522,0.00631857,0.135935,20.8576,64.0504,-0.0519416,0.0,0.0
970,242.25,44.754,49.8858,134.656,99.9761,100.525,0.00635112,0.136765,20.8582,64.0003,-0.04989,0.0,0.0
975,243.5,45.0973,49.8873,140.792,99.9833,100.438,0.00640625,0.137078,20.8585,63.8802,-0.0413586,0.0,0.0
980,244.75,45.2305,50.2577,138.415,99.9934,100.551,0.00648315,0.13675,20.8587,63.8902,-0.0506531,0.0,0.0
985,246,45.0108,49.3068,137.937,99.9984,100.632,0.00655647,0.136051,20.8588,63.8002,-0.0574819,0.0,0.0
990,247.25,45.5269,49.3329,133.586,100.017,100.699,0.00661219,0.135374,20.8589,63.7901,-0.0619126,0.0,0.0
995,248.5,44.8948,49.5678,132.985,100.018,100.614,0.00666701,0.13501,20.8589,63.7301,-0.0540947,0.0,0.0
1000,249.75,44.899,49.3949,137.918,100.031,100.464,0.00669391,0.135072,20.859,63.6901,-0.0393208,0.0,0.0
1005,251,45.5364,49.7725,131.592,100.053,100.502,0.00664339,0.135086,20.8589,63.64,-0.0407893,0.0,0.0
1010,252.25,45.3485,49.8218,144.019,100.068,100.516,0.00654827,0.135011,20.8586,63.59,-0.0406606,0.0,0.0
1015,253.5,45.148,49.5344,133.736,100.078,100.612,0.00642683,0.135092,20.8584,63.5599,-0.0484528,0.0,0.0
1020,254.75,44.9987,49.393,135.108,100.102,100.459,0.00634886,0.135367,20.8583,63.5199,-0.032388,0.0,0.0
1025,256,44.9485,49.2716,136.548,100.119,100.6,0.0063297,0.135432,20.8582,63.4799,-0.0436549,0.0,0.0
1030,257.25,45.636,49.543,133.11,100.123,100.568,0.00635291,0.135544,20.8582,63.4598,-0.0403563,0.0,0.0
1035,258.5,45.2575,50.0838,135.273,100.147,100.541,0.00640208,0.135792,20.8574,63.3698,-0.0357578,0.0,0.0
1040,259.75,44.959,49.3014,139.671,100.148,100.669,0.00645307,0.135815,20.8567,63.3397,-0.0472167,0.0,0.0
1045,261,44.8339,49.2929,132.031,100.17,100.742,0.00649353,0.135473,20.8564,63.2396,-0.0518794,0.0,0.0
1050,262.25,45.3245,49.3591,135.972,100.173,100.81,0.00647644,0.13514,20.8561,63.2096,-0.0577687,0.0,0.0
1055,263.5,44.9687,49.6594,138.006,100.189,100.556,0.00639285,0.135048,20.8562,63.1295,-0.0332608,0.0,0.0
1060,264.75,45.0597,48.9847,136.145,100.198,100.948,0.00627438,0.135426,20.8563,63.0995,-0.0678905,0.0,0.0
1065,266,44.6317,49.0424,137.357,100.222,100.647,0.00611747,0.136105,20.8572,63.0595,-0.0385232,0.0,0.0
1070,267.25,45.612,49.6352,137.275,100.225,100.82,0.00597823,0.136902,20.8576,63.0595,-0.0538561,0.0,0.0
1075,268.5,45.3064,49.8484,135.109,100.23,100.888,0.00592627,0.137641,20.8571,62.9794,-0.0595866,0.0,0.0
1080,269.75,45.3648,50.1672,133.772,100.252,101.028,0.00602582,0.138049,20.8569,62.9694,-0.0702521,0.0,0.0
1085,271,45.6675,49.7664,137.689,100.267,100.868,0.00615511,0.138175,20.8567,62.9193,-0.0544355,0.0,0.0
1090,272.25,45.1133,50.1189,137.537,100.265,100.572,0.00624655,0.138398,20.8566,62.8693,-0.0278757,0.0,0.0
1095,273.5,45.5274,49.8034,137.415,100.279,100.627,0.00629088,0.138683,20.8566,62.8493,-0.0316116,0.0,0.0
1100,274.75,45.4771,49.5395,136.536,100.287,100.74,0.00632263,0.138706,20.8565,62.7692,-0.0410014,0.0,0.0
1105,276,45.2137,49.2875,138.864,100.295,100.91,0.00638176,0.138651,20.8561,62.7191,-0.05573,0.0,0.0
1110,277.25,45.0111,49.5854,136.312,100.282,100.765,0.00645632,0.138984,20.8553,62.6791,-0.0437853,0.0,0.0
1115,278.5,44.5414,49.3274,137.061,100.286,100.959,0.00649846,0.139564,20.8548,62.6891,-0.0609326,0.0,0.0
1120,279.75,45.0675,49.6356,138.684,100.309,100.947,0.00648248,0.139211,20.8545,62.619,-0.05779,0.0,0.0
1125,281,45.2744,49.8864,136.303,100.316,100.77,0.00638915,0.13808,20.8544,62.569,-0.0411083,0.0,0.0
1130,282.25,45.5732,49.9058,138.433,100.296,101.254,0.00626246,0.137049,20.8543,62.559,-0.0866157,0.0,0.0
1135,283.5,45.308,49.3711,136.522,100.304,100.666,0.00606195,0.136371,20.8544,62.559,-0.0327361,0.0,0.0
1140,284.75,45.4881,50.0144,138.679,100.307,100.616,0.00590382,0.13609,20.8549,62.3588,-0.0280516,0.0,0.0
1145,286,45.3251,49.7719,134.851,100.311,100.937,0.00582609,0.13614,20.8552,62.3988,-0.0566848,0.0,0.0
1150,287.25,45.2434,48.9,136.966,100.292,100.791,0.00582635,0.136301,20.855,62.3288,-0.0451999,0.0,0.0
1155,288.5,45.3891,49.5662,133.362,100.289,100.777,0.00586729,0.136242,20.8549,62.2687,-0.0442201,0.0,0.0
1160,289.75,45.4632,49.1653,136.935,100.291,100.532,0.00592799,0.135822,20.8549,62.1786,-0.0218767,0.0,0.0
1165,291,45.4356,49.5128,137.561,100.269,100.746,0.00604271,0.135177,20.8549,62.1986,-0.0432245,0.0,0.0
1170,292.25,45.3004,48.9748,138.483,100.253,100.701,0.00617882,0.13467,20.8548,62.1286,-0.040683,0.0,0.0
1175,293.5,45.3588,49.1283,136.877,100.255,100.652,0.00630224,0.134435,20.8555,62.1286,-0.0359595,0.0,0.0
1180,294.75,45.167,49.2915,137.807,100.252,100.473,0.00641596,0.134145,20.8561,62.0785,-0.0200995,0.0,0.0
1185,296,45.3073,49.1708,137.908,100.227,100.732,0.00650174,0.133704,20.8565,61.9884,-0.0457619,0.0,0.0
1190,297.25,45.0297,49.238,141.313,100.198,100.49,0.00660993,0.13339,20.8568,61.9384,-0.0265384,0.0,0.0
1195,298.5,45.2816,48.3946,141.788,100.202,100.677,0.00670946,0.133299,20.8569,61.9484,-0.0430647,0.0,0.0
1200,299.75,45.0959,48.7397,138.696,100.177,101.06,0.00675169,0.133053,20.858,61.9484,-0.0799255,0.0,0.0
1205,301,44.7682,48.7885,133.871,100.15,100.577,0.00671945,0.132369,20.8586,61.9084,-0.0387358,0.0,0.0
1210,302.25,44.5538,49.2373,134.438,100.128,100.743,0.00662806,0.131744,20.8589,61.8483,-0.0557551,0.0,0.0
1215,303.5,45.1709,49.2507,138.223,100.1,100.321,0.00652978,0.130794,20.8591,61.7883,-0.0201,0.0,0.0
1220,304.75,44.8129,48.6598,137.812,100.083,100.689,0.006434,0.130104,20.8599,61.7883,-0.0549789,0.0,0.0
1225,306,45.316,49.2598,138.649,100.041,100.638,0.00639904,0.12939,20.861,61.7682,-0.0542728,0.0,0.0
1230,307.25,44.7034,49.0827,135.101,100.033,100.533,0.00640149,0.128461,20.8617,61.7082,-0.0454241,0.0,0.0
1235,308.5,45.3842,49.3562,140.202,100.005,100.299,0.00638663,0.127824,20.8622,61.6882,-0.0267965,0.0,0.0
1240,309.75,44.9502,48.9426,135.521,99.9656,100.408,0.00632435,0.127775,20.8637,61.6281,-0.0402565,0.0,0.0
1245,311,45.0492,49.5057,138.548,99.9202,100.476,0.00623506,0.127846,20.8653,61.6081,-0.0504894,0.0,0.0
1250,312.25,44.5426,48.8253,138.164,99.8903,100.214,0.00614978,0.1278,20.867,61.498,-0.0294981,0.0,0.0
1255,313.5,45.0689,49.3124,141.582,99.8558,100.436,0.00612013,0.127393,20.868,61.508,-0.0527317,0.0,0.0
1260,314.75,45.1003,48.8884,138.709,99.8112,100.259,0.00613434,0.126792,20.8683,61.528,-0.0408106,0.0,0.0
1265,316,44.3602,49.278,138.03,99.772,100.292,0.00616907,0.125989,20.8684,61.538,-0.0473089,0.0,0.0
1270,317.25,44.5695,49.0251,136.203,99.748,100.211,0.00620818,0.125191,20.8684,61.478,-0.0421429,0.0,0.0
1275,318.5,44.9913,49.189,137.386,99.7295,100.103,0.00626683,0.124621,20.8685,61.4479,-0.0340455,0.0,0.0
1280,319.75,44.9563,48.9623,136.635,99.6575,100.165,0.00633957,0.124199,20.8687,61.4179,-0.0462273,0.0,0.0
1285,321,45.1797,48.8111,135.182,99.6146,99.9944,0.00640861,0.123797,20.8696,61.3979,-0.0346624,0.0,0.0
1290,322.25,44.6215,48.5959,139.585,99.5936,99.9811,0.00644361,0.123265,20.8701,61.3278,-0.0353709,0.0,0.0
1295,323.5,45.1982,48.8756,135.86,99.5359,99.8592,0.00646419,0.122805,20.8704,61.3078,-0.0295341,0.0,0.0
1300,324.75,44.8547,48.4991,133.673,99.4867,99.8251,0.00649818,0.122924,20.8707,61.2778,-0.030935,0.0,0.0
1305,326,44.9629,48.0335,136.548,99.4665,99.8031,0.00656109,0.123881,20.8711,61.2878,-0.03077,0.0,0.0
1310,327.25,44.4433,48.4749,138.386,99.4328,99.821,0.00666095,0.125158,20.8714,61.2578,-0.0354908,0.0,0.0
1315,328.5,44.6742,48.4352,138.459,99.4025,99.6292,0.00679179,0.126374,20.8707,61.2077,-0.0207475,0.0,0.0
1320,329.75,44.8174,48.7241,135.586,99.36,99.7497,0.00695457,0.126848,20.8692,61.1777,-0.0356554,0.0,0.0
1325,331,44.9339,49.0383,137.819,99.3343,99.6522,0.00708598,0.12662,20.8683,61.1376,-0.0291,0.0,0.0
1330,332.25,44.6082,48.4233,141.275,99.3032,99.5376,0.00716908,0.125994,20.8678,61.1176,-0.021481,0.0,0.0
1335,333.5,44.5418,48.39,139.027,99.2636,99.7235,0.00719738,0.124646,20.8676,61.0876,-0.0420993,0.0,0.0
1340,334.75,44.694,48.3346,138.82,99.2392,99.5119,0.00718699,0.122976,20.8677,61.0476,-0.0249928,0.0,0.0
1345,336,44.633,48.138,136.241,99.2186,99.6485,0.00713954,0.121517,20.8681,61.0376,-0.0393819,0.0,0.0
1350,337.25,44.3098,48.0202,140.612,99.1887,99.6945,0.00705929,0.120164,20.8693,61.0075,-0.0463288,0.0,0.0
1355,338.5,45.0915,48.8099,135.816,99.1525,99.5123,0.00698577,0.11878,20.8712,60.9675,-0.0329955,0.0,0.0
1360,339.75,44.2786,48.3141,137.699,99.1432,99.6807,0.00695333,0.117637,20.8722,60.9274,-0.0492431,0.0,0.0
1365,341,44.5548,47.965,136.33,99.1222,99.47,0.00697226,0.116748,20.8728,60.9074,-0.0319053,0.0,0.0
1370,342.25,44.6505,48.2466,136.261,99.0965,99.8293,0.00702884,0.115795,20.8741,60.8474,-0.0671024,0.0,0.0
1375,343.5,44.9181,48.9332,137.39,99.0759,99.3017,0.00711852,0.115302,20.875,60.8574,-0.0207312,0.0,0.0
1380,344.75,44.0445,48.2102,138.734,99.0692,99.2777,0.00721555,0.115148,20.8754,60.8274,-0.0191555,0.0,0.0
1385,346,44.3496,48.5413,136.49,99.0637,99.3481,0.00729192,0.115078,20.8758,60.8173,-0.0261143,0.0,0.0
1390,347.25,44.1472,48.5435,137.259,99.0443,99.3725,0.00733381,0.114877,20.8763,60.7573,-0.0301283,0.0,0.0
1395,348.5,44.9297,48.0215,137.297,99.0443,99.3454,0.00733312,0.11463,20.8766,60.7773,-0.0276405,0.0,0.0
1400,349.75,43.8257,48.1741,139.676,99.0608,99.3044,0.00731501,0.114421,20.8767,60.7373,-0.0223774,0.0,0.0
1405,351,44.1998,48.1594,136.313,99.0629,99.3955,0.0072954,0.11407,20.8768,60.6872,-0.0305341,0.0,0.0
1410,352.25,44.616,47.8442,137.712,99.0658,99.5238,0.00728175,0.113744,20.8778,60.6972,-0.0420158,0.0,0.0
1415,353.5,44.2144,47.7643,138.325,99.0784,99.5087,0.0072956,0.113562,20.8784,60.6572,-0.0394659,0.0,0.0
1420,354.75,44.6553,48.7014,138.687,99.1209,99.5823,0.0073114,0.113293,20.8788,60.6372,-0.0422929,0.0,0.0
1425,356,44.6044,48.6163,138.309,99.1331,99.4088,0.00731859,0.112967,20.879,60.6172,-0.025296,0.0,0.0
1430,357.25,44.5071,47.9324,135.887,99.1475,99.6361,0.00736046,0.112576,20.8789,60.5571,-0.0447782,0.0,0.0
1435,358.5,44.6937,48.3211,138.091,99.195,99.6053,0.00740932,0.112376,20.8788,60.5571,-0.0375926,0.0,0.0
1440,359.75,44.4038,47.3555,138.186,99.2207,99.4884,0.0074289,0.112226,20.8787,60.5471,-0.0245453,0.0,0.0
1445,361,43.891,47.6179,140.172,99.248,99.6844,0.00740251,0.112232,20.8787,60.5071,-0.0399566,0.0,0.0
1450,362.25,44.6612,48.2188,137.362,99.2733,99.6439,0.0073924,0.112372,20.8777,60.487,-0.0339403,0.0,0.0
1455,363.5,44.6011,47.5851,135.378,99.3343,99.7193,0.00744747,0.112342,20.8772,60.457,-0.0352368,0.0,0.0
1460,364.75,44.2229,47.819,140.495,99.3945,99.5846,0.00754748,0.11214,20.8768,60.437,-0.0174001,0.0,0.0
1465,366,44.6086,47.828,136.255,99.4421,99.8081,0.0076507,0.111645,20.8774,60.427,-0.0334679,0.0,0.0
1470,367.25,44.1212,48.2677,137.228,99.4917,100.032,0.00769777,0.110905,20.8782,60.3869,-0.0492982,0.0,0.0
1475,368.5,44.5658,48.0864,140.027,99.5738,100.002,0.0077119,0.110038,20.8787,60.3669,-0.0390657,0.0,0.0
1480,369.75,44.3039,47.5525,136.613,99.6538,100.063,0.00774128,0.109423,20.8798,60.3469,-0.0373244,0.0,0.0
1485,371,43.837,47.5819,134.61,99.6946,100.069,0.00778686,0.109195,20.8809,60.3669,-0.0341806,0.0,0.0
1490,372.25,43.5402,47.6082,138.554,99.7994,100.316,0.00787719,0.10941,20.8822,60.3069,-0.0470671,0.0,0.0
1495,373.5,44.2038,47.7076,133.982,99.8398,100.431,0.00796913,0.109733,20.883,60.2768,-0.0537736,0.0,0.0
1500,374.75,43.7602,47.8648,136.829,99.9029,100.279,0.00806129,0.109842,20.8825,60.2468,-0.0342395,0.0,0.0
1505,376,43.6909,46.9784,136.087,99.9547,100.252,0.00806136,0.109643,20.8822,60.2368,-0.0270562,0.0,0.0
1510,377.25,44.3357,47.5694,136.9,100.006,100.438,0.00791807,0.109382,20.8821,60.1968,-0.0392085,0.0,0.0
1515,378.5,43.7978,47.8589,136.883,100.087,100.264,0.00768113,0.109164,20.8822,60.1567,-0.0161073,0.0,0.0
1520,379.75,43.4203,47.7749,138.939,100.147,100.587,0.00748864,0.10882,20.8828,60.1767,-0.0399621,0.0,0.0
1525,381,44.374,47.6225,138.002,100.228,100.611,0.00737768,0.108467,20.8828,60.1267,-0.0347812,0.0,0.0
1530,382.25,43.8549,47.0257,139.219,100.313,100.63,0.00738316,0.10836,20.8827,60.1067,-0.0287661,0.0,0.0
1535,383.5,44.0375,47.318,137.043,100.367,100.819,0.00748373,0.108439,20.8829,60.1367,-0.040972,0.0,0.0
1540,384.75,43.8403,46.9425,137.57,100.421,100.785,0.0075964,0.108663,20.8837,60.1067,-0.032929,0.0,0.0
1545,386,43.6835,47.5705,136.247,100.47,100.698,0.00766215,0.108859,20.8842,60.0867,-0.0206033,0.0,0.0
1550,387.25,43.4473,46.8518,136.791,100.528,100.942,0.00768009,0.108902,20.8843,60.0766,-0.0374029,0.0,0.0
1555,388.5,41.5979,45.7934,135.992,100.593,101.003,0.00766027,0.108749,20.8842,60.0366,-0.0370545,0.0,0.0
1560,389.75,42.3166,45.2173,136.335,100.63,101.019,0.00759532,0.108488,20.8842,60.0566,-0.0351539,0.0,0.0
1565,391,42.2426,45.5089,138.986,100.668,101.063,0.00749321,0.10812,20.8841,60.0166,-0.035585,0.0,0.0
1570,392.25,41.4271,45.3208,132.584,100.716,101.503,0.00743119,0.107649,20.8841,59.9866,-0.0708342,0.0,0.0
1575,393.5,42.3266,45.0257,135.723,100.743,101.07,0.00745588,0.107254,20.8841,59.9866,-0.0295145,0.0,0.0
1580,394.75,41.7199,45.2414,139.566,100.765,101.159,0.0075224,0.107005,20.8841,59.9365,-0.03553,0.0,0.0
1585,396,42.0576,45.3619,138.75,100.804,100.998,0.00762001,0.106778,20.8841,59.9065,-0.0175644,0.0,0.0
1590,397.25,42.1666,45.2214,138.418,100.808,101.193,0.0076484,0.106493,20.8841,59.8965,-0.034718,0.0,0.0
1595,398.5,42.1929,45.34,140.853,100.83,101.204,0.00762039,0.106499,20.8841,59.8564,-0.033773,0.0,0.0
1600,399.75,41.9559,45.6036,139.759,100.827,101.264,0.00761997,0.106594,20.8841,59.8164,-0.0394195,0.0,0.0
1605,401,41.881,45.7436,137.564,100.852,101.109,0.00769341,0.106452,20.8841,59.8965,-0.0231807,0.0,0.0
1610,402.25,42.182,45.4336,139.001,100.86,101.323,0.0077974,0.106179,20.8841,59.8164,-0.04179,0.0,0.0
1615,403.5,42.5233,45.3235,136.869,100.824,101.096,0.00788618,0.105601,20.8845,59.7664,-0.0245714,0.0,0.0
1620,404.75,42.2325,45.6184,142.148,100.83,101.115,0.00797113,0.104947,20.8857,59.7563,-0.0257005,0.0,0.0
1625,406,41.9705,45.2483,139.018,100.81,101.261,0.0080331,0.104548,20.8876,59.7764,-0.0406121,0.0,0.0
1630,407.25,41.8516,44.8299,137.243,100.799,101.151,0.00808134,0.104424,20.8888,59.7363,-0.0317832,0.0,0.0
1635,408.5,41.5549,45.0217,137.606,100.767,101.356,0.00812026,0.104298,20.8895,59.7764,-0.0530877,0.0,0.0
1640,409.75,41.633,44.8146,139.623,100.727,101.085,0.00821471,0.104137,20.8892,59.7563,-0.032322,0.0,0.0
1645,411,42.0527,45.2883,136.508,100.704,101.005,0.00833661,0.103854,20.8888,59.7363,-0.0271667,0.0,0.0
1650,412.25,42.1511,45.4925,137.913,100.675,100.919,0.00846054,0.103363,20.8886,59.7163,-0.0220329,0.0,0.0
1655,413.5,41.8066,44.8235,137.348,100.616,100.844,0.00855687,0.102944,20.8885,59.6863,-0.0205919,0.0,0.0
1660,414.75,42.2828,45.0941,139.888,100.576,101.069,0.0086031,0.102546,20.889,59.6963,-0.0445469,0.0,0.0
1665,416,41.7739,44.4477,138.394,100.54,100.705,0.0086273,0.102199,20.8897,59.6963,-0.0149756,0.0,0.0
1670,417.25,41.5978,44.808,137.189,100.483,100.798,0.00865395,0.101863,20.89,59.6863,-0.0284867,0.0,0.0
1675,418.5,42.1933,44.5647,137.858,100.42,100.719,0.00871208,0.101406,20.8905,59.6863,-0.0271003,0.0,0.0
1680,419.75,41.7291,44.9971,140.254,100.372,100.713,0.00882236,0.101103,20.8909,59.6763,-0.0308713,0.0,0.0
1685,421,41.6354,44.723,135.734,100.317,100.596,0.00891335,0.100771,20.8911,59.6262,-0.0252606,0.0,0.0
1690,422.25,41.3871,44.7068,143.638,100.257,100.492,0.00896289,0.100616,20.8922,59.5662,-0.0213124,0.0,0.0
1695,423.5,41.631,45.0277,144.515,100.201,100.501,0.00890167,0.100575,20.8928,59.5562,-0.0272326,0.0,0.0
1700,424.75,41.7034,44.7402,136.249,100.163,100.581,0.00883143,0.100342,20.8932,59.5862,-0.037966,0.0,0.0
1705,426,41.9661,44.3514,135.871,100.117,100.292,0.00878159,0.100006,20.8934,59.5261,-0.0159795,0.0,0.0
1710,427.25,41.0837,45.2803,144.992,100.054,100.457,0.00881029,0.0995085,20.8929,59.5662,-0.0366261,0.0,0.0
1715,428.5,41.7766,45.0415,136.838,100.038,100.264,0.00886885,0.0990412,20.8925,59.5562,-0.0205549,0.0,0.0
1720,429.75,41.4927,44.4599,136.761,100.004,100.353,0.00889505,0.0983714,20.8932,59.5461,-0.0317587,0.0,0.0
1725,431,41.9157,45.4158,138.45,99.9711,100.467,0.00881807,0.0976185,20.8936,59.5562,-0.0450559,0.0,0.0
1730,432.25,41.7094,45.1431,140.812,99.9298,100.198,0.00872889,0.0973048,20.8939,59.4861,-0.0243852,0.0,0.0
1735,433.5,41.3482,44.5891,138.492,99.9517,100.324,0.00866384,0.0973562,20.894,59.4961,-0.0338411,0.0,0.0
1740,434.75,41.5705,45.2031,140.053,100.035,100.432,0.00864567,0.0975784,20.8941,59.4861,-0.0361399,0.0,0.0
1745,436,41.3658,44.6798,141.024,100.089,100.313,0.00865709,0.0977083,20.8942,59.406,-0.0203481,0.0,0.0
1750,437.25,41.4437,44.4723,135.033,100.133,100.632,0.00866209,0.097817,20.8942,59.446,-0.0453063,0.0,0.0
1755,438.5,41.9966,45.1939,132.146,100.194,100.48,0.00865667,0.0978967,20.8942,59.436,-0.0260037,0.0,0.0
1760,439.75,40.8958,44.5755,141.19,100.227,100.719,0.00866457,0.0978634,20.894,59.356,-0.0445594,0.0,0.0
1765,441,41.6278,45.0202,136.237,100.269,100.602,0.00869809,0.0977883,20.8937,59.376,-0.0301207,0.0,0.0
1770,442.25,41.1351,44.6241,136.139,100.264,100.707,0.00873428,0.0976258,20.8936,59.366,-0.0401922,0.0,0.0
1775,443.5,41.3385,45.0495,137.671,100.311,100.742,0.00876146,0.0974825,20.8935,59.3259,-0.0391104,0.0,0.0
1780,444.75,41.533,44.6733,136.003,100.332,100.7,0.00878297,0.0974196,20.8934,59.386,-0.0333311,0.0,0.0
1785,446,41.2297,45.0826,139.167,100.342,100.559,0.00877518,0.0974145,20.8934,59.3159,-0.0196359,0.0,0.0
1790,447.25,41.5549,44.3743,138.911,100.349,100.745,0.00874287,0.0972341,20.8934,59.2759,-0.0358826,0.0,0.0
1795,448.5,41.457,44.523,137.635,100.365,100.799,0.0086991,0.0969586,20.8934,59.2959,-0.0392581,0.0,0.0
1800,449.75,41.2402,44.3929,140.26,100.372,100.579,0.00863173,0.0964126,20.8936,59.3159,-0.0187573,0.0,0.0
1805,451,40.9434,44.872,138.654,100.372,100.675,0.00856846,0.0960903,20.8946,59.2559,-0.0274172,0.0,0.0
1810,452.25,41.468,44.471,137.212,100.391,100.564,0.0085358,0.0960276,20.8951,59.2359,-0.0157429,0.0,0.0
1815,453.5,41.178,44.6671,133.35,100.424,100.679,0.00853512,0.0959899,20.8954,59.2559,-0.0231366,0.0,0.0
1820,454.75,41.5492,44.3072,142.291,100.394,100.746,0.00858549,0.0962545,20.8956,59.2659,-0.0318764,0.0,0.0
1825,456,40.9754,44.3815,138.285,100.387,100.595,0.00867383,0.0968463,20.8957,59.2258,-0.0188367,0.0,0.0
1830,457.25,41.0898,44.5597,137.499,100.413,100.72,0.00881118,0.0974956,20.8958,59.2258,-0.0278703,0.0,0.0
1835,458.5,41.0461,44.6191,135.368,100.411,100.911,0.0089577,0.0977535,20.8956,59.1958,-0.0452321,0.0,0.0
1840,459.75,41.5894,44.2548,139.29,100.419,100.441,0.00902338,0.0975248,20.8949,59.1658,-0.00197472,0.0,0.0
1845,461,41.54,44.7071,139.673,100.396,100.673,0.00901245,0.0969361,20.8944,59.1658,-0.0251539,0.0,0.0
1850,462.25,40.8939,44.7003,136.559,100.405,100.663,0.00891277,0.0963674,20.8945,59.2058,-0.023357,0.0,0.0
1855,463.5,41.0367,44.6097,136.646,100.401,100.683,0.00880352,0.0960317,20.8951,59.1558,-0.0255693,0.0,0.0
1860,464.75,41.1838,44.0295,139.45,100.4,100.644,0.00879319,0.0958724,20.8954,59.1658,-0.0221085,0.0,0.0
1865,466,41.2247,44.3256,136.604,100.399,100.874,0.00889149,0.0959536,20.8956,59.1758,-0.0429752,0.0,0.0
1870,467.25,41.2914,44.2264,137.541,100.416,100.89,0.00900332,0.0961705,20.8957,59.1458,-0.0429823,0.0,0.0
1875,468.5,41.2724,44.4658,137.89,100.412,100.655,0.0090443,0.0962393,20.8958,59.1358,-0.0220797,0.0,0.0
1880,469.75,41.2694,44.4046,141.737,100.391,100.574,0.00895941,0.0960635,20.8958,59.0957,-0.0165761,0.0,0.0
1885,471,41.1349,44.472,138.638,100.405,100.599,0.00887367,0.0956095,20.8959,59.0957,-0.0176073,0.0,0.0
1890,472.25,40.4559,44.0982,137.77,100.405,100.779,0.00877877,0.0951231,20.8959,59.0657,-0.0338428,0.0,0.0
1895,473.5,40.7051,44.5421,137.109,100.401,100.542,0.00878315,0.0946835,20.896,59.0357,-0.0127849,0.0,0.0
1900,474.75,41.2338,44.1794,137.046,100.397,100.772,0.00888282,0.0946302,20.896,59.0257,-0.034021,0.0,0.0
1905,476,40.9885,43.8868,138.429,100.387,100.695,0.00898628,0.0947819,20.8971,59.0357,-0.0279111,0.0,0.0
1910,477.25,40.6052,43.4628,143.293,100.409,100.935,0.00904424,0.0949883,20.8967,59.0156,-0.0475403,0.0,0.0
1915,478.5,41.3247,43.7833,136.955,100.377,100.568,0.00904285,0.0953225,20.8965,59.0056,-0.0172951,0.0,0.0
1920,479.75,40.8809,43.8649,139.791,100.362,100.73,0.0089604,0.0957542,20.8972,58.9856,-0.0333262,0.0,0.0
1925,481,40.8811,44.2071,137.092,100.38,100.703,0.00890435,0.0962188,20.8975,59.0657,-0.0293102,0.0,0.0
1930,482.25,40.6204,44.1963,138.128,100.364,100.962,0.00887724,0.0963708,20.8971,59.0457,-0.054116,0.0,0.0
1935,483.5,40.6554,43.2694,137.938,100.354,100.779,0.00884031,0.096403,20.8971,59.0156,-0.0384218,0.0,0.0
1940,484.75,40.6035,44.0943,137.97,100.327,100.711,0.00879514,0.096528,20.8971,59.0056,-0.0347496,0.0,0.0
1945,486,40.75,43.985,137.667,100.336,100.512,0.00878473,0.0966897,20.8971,58.8955,-0.0160376,0.0,0.0
1950,487.25,40.8535,43.7405,138.504,100.304,100.641,0.00881492,0.096783,20.8971,58.9156,-0.0305641,0.0,0.0
1955,488.5,40.7126,43.7177,137.631,100.304,100.546,0.00881706,0.0966437,20.8971,58.9856,-0.0219496,0.0,0.0
1960,489.75,41.134,44.1142,136.661,100.287,100.621,0.00875485,0.0961317,20.8971,58.8955,-0.0303451,0.0,0.0
1965,491,40.7467,44.3432,134.793,100.259,100.433,0.00863715,0.0956083,20.8971,58.9756,-0.0158212,0.0,0.0
1970,492.25,41.1639,43.9007,140.833,100.233,100.436,0.008508,0.0952162,20.8973,58.9556,-0.018401,0.0,0.0
1975,493.5,41.1806,44.3815,137.698,100.19,100.735,0.00837232,0.0950492,20.898,58.9256,-0.0494604,0.0,0.0
1980,494.75,40.7933,44.1673,135.689,100.172,100.429,0.00829539,0.0950298,20.8982,58.8855,-0.0233636,0.0,0.0
1985,496,41.189,44.2078,138.695,100.152,100.46,0.00824961,0.0952328,20.8982,58.9156,-0.0279193,0.0,0.0
1990,497.25,40.8662,43.9891,139.443,100.107,100.427,0.00818858,0.0954894,20.8981,58.9556,-0.0291305,0.0,0.0
1995,498.5,40.9311,44.1224,139.398,100.059,100.325,0.00808573,0.0951939,20.898,58.9256,-0.024112,0.0,0.0
2000,499.75,40.6032,44.2495,140.892,100.037,100.518,0.00797699,0.094477,20.8979,58.8155,-0.0437045,0.0,0.0
2005,501,41.0011,44.5761,140.163,99.9913,100.317,0.00789552,0.0941238,20.8979,58.8855,-0.0296517,0.0,0.0
2010,502.25,40.8075,44.3278,138.162,99.9542,100.239,0.00789196,0.0942174,20.8979,58.8655,-0.0258818,0.0,0.0
2015,503.5,40.5073,44.5512,136.985,99.985,100.418,0.00795884,0.094601,20.8981,58.7554,-0.0393694,0.0,0.0
2020,504.75,41.0236,43.6905,140.121,99.9942,100.455,0.00807039,0.0949594,20.8983,58.7954,-0.0419046,0.0,0.0
2025,506,40.2954,44.0699,141.473,100.011,100.305,0.00816535,0.0953725,20.8985,58.7754,-0.026803,0.0,0.0
2030,507.25,41.2543,44.403,141.056,100.021,100.398,0.00828134,0.0960622,20.8986,58.7954,-0.0342362,0.0,0.0
2031,507.5,40.6406,44.3228,141.09,100.037,100.442,0.00831337,0.0962065,20.8984,58.7854,-0.0368659,0.0,0.0