File: 01_Data/Cellulose_Insulation/Cone/Cellulose_Insulation_HRRPUA_25.csv
Time after Ignition,Cellulose_Insulation_R1,Cellulose_Insulation_R2,Cellulose_Insulation_R3,Mean,Std. Dev.
0.0,4.5,9.4,4.7,6.2,2.8
0.25,4.3,9.0,4.6,6.0,2.6
0.5,4.3,8.6,4.6,5.8,2.4
0.75,4.3,8.3,4.6,5.7,2.3
1.0,4.2,8.4,4.6,5.8,2.3
1.25,4.3,8.3,4.7,5.8,2.2
1.5,4.2,8.1,4.7,5.7,2.1
1.75,4.2,8.2,4.8,5.7,2.2
2.0,4.2,8.0,4.8,5.7,2.1
2.25,4.2,7.9,4.7,5.6,2.0
2.5,4.2,7.8,4.7,5.6,1.9
2.75,4.2,7.6,4.7,5.5,1.8
3.0,4.1,7.5,4.7,5.5,1.8
3.25,4.2,7.6,4.8,5.5,1.8
3.5,4.1,7.5,4.7,5.4,1.8
3.75,4.0,7.4,4.8,5.4,1.8
4.0,4.0,7.3,4.8,5.4,1.7
4.25,4.1,7.2,4.8,5.4,1.6
4.5,4.0,7.2,4.8,5.3,1.7
4.75,4.0,7.2,4.8,5.3,1.7
5.0,3.9,6.9,4.8,5.2,1.5
5.25,4.0,6.7,4.7,5.1,1.4
5.5,3.9,6.5,4.8,5.1,1.3
5.75,3.9,6.2,4.8,5.0,1.2
6.0,3.8,6.1,4.8,4.9,1.1
6.25,3.9,5.8,4.8,4.8,1.0
6.5,3.8,5.7,4.8,4.7,0.9
6.75,4.0,5.5,4.9,4.8,0.8
7.0,4.0,5.4,4.8,4.8,0.7
7.25,4.1,5.3,4.8,4.7,0.6
7.5,4.2,5.4,4.9,4.8,0.6
7.75,4.4,5.2,4.8,4.8,0.4
8.0,4.5,5.0,5.0,4.9,0.3
8.25,4.8,5.0,5.1,5.0,0.2
8.5,4.8,5.0,5.1,5.0,0.1
8.75,5.2,5.1,5.3,5.2,0.1
9.0,5.6,5.1,5.3,5.3,0.2
9.25,5.9,5.2,5.3,5.5,0.4
9.5,6.1,5.1,5.4,5.6,0.5
9.75,6.4,5.3,5.5,5.7,0.6
10.0,7.6,5.5,5.6,6.2,1.2
10.25,8.4,5.6,5.6,6.5,1.6
10.5,9.3,5.8,8.0,7.7,1.8
10.75,10.1,5.8,10.1,8.7,2.5
11.0,10.7,5.9,12.2,9.6,3.3
11.25,14.7,10.1,14.1,13.0,2.5
11.5,18.2,14.0,15.4,15.8,2.1
11.75,21.3,17.3,21.2,19.9,2.3
12.0,24.4,20.1,26.6,23.7,3.3
12.25,26.6,27.9,31.5,28.7,2.5
12.5,32.9,35.1,36.0,34.7,1.6
12.75,38.0,41.0,43.6,40.9,2.8
13.0,43.5,47.3,50.4,47.1,3.4
13.25,47.8,51.4,56.7,52.0,4.5
13.5,55.6,55.5,61.6,57.6,3.5
13.75,62.3,63.6,66.8,64.2,2.3
14.0,68.8,69.8,72.9,70.5,2.1
14.25,74.1,76.9,79.8,76.9,2.9
14.5,79.9,83.8,83.6,82.4,2.2
14.75,85.2,86.4,87.7,86.4,1.3
15.0,88.9,93.1,93.9,92.0,2.7
15.25,91.6,98.9,96.8,95.8,3.7
15.5,96.8,103.0,100.9,100.2,3.2
15.75,99.6,106.2,101.6,102.5,3.4
16.0,101.8,110.2,106.3,106.1,4.2
16.25,106.3,114.7,107.3,109.4,4.6
16.5,107.5,116.6,111.0,111.7,4.6
16.75,108.9,119.7,113.8,114.1,5.4
17.0,111.2,123.1,113.2,115.8,6.3
17.25,113.2,126.5,114.9,118.2,7.3
17.5,113.6,128.2,117.6,119.8,7.5
17.75,116.7,127.1,117.1,120.3,5.9
18.0,117.2,132.0,118.2,122.5,8.3
18.25,116.7,132.8,118.5,122.7,8.8
18.5,118.8,132.7,119.3,123.6,7.9
18.75,119.5,132.0,121.1,124.2,6.8
19.0,118.9,132.5,120.1,123.8,7.5
19.25,120.1,135.3,118.5,124.6,9.3
19.5,121.4,133.6,120.9,125.3,7.2
19.75,120.1,133.2,120.4,124.6,7.4
20.0,117.2,134.0,119.9,123.7,9.0
20.25,116.9,132.5,119.9,123.1,8.3
20.5,118.4,134.1,119.1,123.9,8.9
20.75,117.8,131.4,119.3,122.8,7.5
21.0,117.3,131.8,117.8,122.3,8.3
21.25,116.6,130.3,117.4,121.5,7.7
21.5,115.9,129.6,116.2,120.6,7.9
21.75,113.5,131.5,114.6,119.9,10.1
22.0,114.3,129.9,116.2,120.1,8.5
22.25,112.7,127.7,118.3,119.6,7.6
22.5,113.2,128.8,114.3,118.8,8.7
22.75,111.3,126.4,113.6,117.1,8.1
23.0,108.6,128.8,114.9,117.4,10.3
23.25,110.0,124.0,111.0,115.0,7.8
23.5,106.9,125.5,110.6,114.3,9.9
23.75,108.5,124.4,111.0,114.6,8.6
24.0,106.0,124.3,109.9,113.4,9.6
24.25,105.3,122.1,107.7,111.7,9.1
24.5,104.9,121.4,108.7,111.7,8.6
24.75,107.0,120.0,108.4,111.8,7.1
25.0,104.3,121.7,107.1,111.0,9.4
25.25,103.4,117.8,104.7,108.6,8.0
25.5,102.2,118.6,105.0,108.6,8.8
25.75,102.4,116.2,106.0,108.2,7.1
26.0,101.2,115.3,103.4,106.6,7.6
26.25,99.1,114.7,103.3,105.7,8.1
26.5,99.6,116.8,102.7,106.3,9.2
26.75,99.1,113.0,103.2,105.1,7.2
27.0,98.9,115.0,101.8,105.2,8.5
27.25,98.2,111.5,101.6,103.8,6.9
27.5,97.3,111.7,101.8,103.6,7.3
27.75,94.0,110.6,100.4,101.6,8.4
28.0,94.8,109.6,99.8,101.4,7.5
28.25,93.5,110.2,99.4,101.0,8.5
28.5,93.1,110.3,99.9,101.1,8.7
28.75,91.5,109.7,99.4,100.2,9.1
29.0,90.8,109.5,97.6,99.3,9.4
29.25,88.9,109.6,98.5,99.0,10.4
29.5,89.9,110.8,99.9,100.2,10.4
29.75,88.0,108.5,99.0,98.5,10.3
30.0,86.7,106.2,97.4,96.8,9.7
30.25,86.2,107.6,96.3,96.7,10.7
30.5,85.6,106.6,96.3,96.2,10.5
30.75,85.3,105.8,95.4,95.5,10.2
31.0,85.6,105.6,95.9,95.7,10.0
31.25,84.3,106.6,95.3,95.4,11.1
31.5,83.8,105.0,95.5,94.8,10.6
31.75,83.6,103.2,93.6,93.5,9.8
32.0,83.1,102.1,94.1,93.1,9.5
32.25,81.3,100.4,94.6,92.1,9.8
32.5,82.1,100.1,93.9,92.0,9.2
32.75,82.1,102.1,92.2,92.1,10.0
33.0,81.0,99.9,92.3,91.1,9.5
33.25,80.5,98.8,91.9,90.4,9.2
33.5,80.1,99.8,91.8,90.6,9.9
33.75,79.1,97.5,91.5,89.3,9.4
34.0,80.1,97.1,92.5,89.9,8.8
34.25,78.5,95.7,90.4,88.2,8.8
34.5,77.4,96.2,89.2,87.6,9.5
34.75,77.6,95.6,90.0,87.7,9.2
35.0,76.5,96.3,90.1,87.6,10.1
35.25,77.5,95.3,88.9,87.3,9.0
35.5,77.1,95.1,88.6,86.9,9.1
35.75,76.3,94.4,88.8,86.5,9.3
36.0,76.3,94.1,87.6,86.0,9.0
36.25,75.9,95.7,88.9,86.8,10.1
36.5,76.7,93.4,87.5,85.9,8.5
36.75,76.9,93.1,86.2,85.4,8.1
37.0,76.1,91.6,86.5,84.7,7.9
37.25,75.2,92.3,85.4,84.3,8.6
37.5,77.1,92.4,86.1,85.2,7.7
37.75,76.2,93.2,84.9,84.8,8.5
38.0,74.1,91.3,84.3,83.3,8.6
38.25,73.1,91.1,83.4,82.5,9.0
38.5,74.2,91.2,83.1,82.8,8.5
38.75,73.9,89.6,82.8,82.1,7.9
39.0,74.0,90.8,83.1,82.6,8.4
39.25,74.4,88.9,81.6,81.6,7.2
39.5,74.0,88.7,81.5,81.4,7.4
39.75,74.8,87.5,81.9,81.4,6.4
40.0,74.8,88.5,82.2,81.8,6.8
40.25,74.5,86.5,81.3,80.8,6.0
40.5,73.4,86.8,80.2,80.2,6.7
40.75,74.2,86.2,80.9,80.4,6.0
41.0,74.0,84.1,80.3,79.4,5.1
41.25,73.4,83.8,80.3,79.2,5.3
41.5,73.7,83.5,79.7,79.0,5.0
41.75,73.6,84.2,80.1,79.3,5.4
42.0,73.6,83.0,79.7,78.8,4.8
42.25,72.3,83.9,78.0,78.1,5.8
42.5,73.5,82.6,78.8,78.3,4.6
42.75,73.0,83.1,79.3,78.5,5.1
43.0,73.3,82.3,78.6,78.0,4.5
43.25,73.4,82.7,78.3,78.1,4.7
43.5,72.1,82.4,77.8,77.4,5.2
43.75,73.3,81.1,78.0,77.5,3.9
44.0,72.2,80.1,79.2,77.2,4.4
44.25,72.3,81.1,77.9,77.1,4.5
44.5,72.9,79.5,77.7,76.7,3.4
44.75,72.6,78.9,77.7,76.4,3.3
45.0,72.6,79.9,77.9,76.8,3.8
45.25,71.6,78.3,75.9,75.3,3.4
45.5,72.6,78.1,76.9,75.9,2.9
45.75,72.0,77.8,77.2,75.7,3.2
46.0,71.6,77.0,77.9,75.5,3.4
46.25,72.0,77.8,76.4,75.4,3.0
46.5,72.0,78.5,76.8,75.8,3.4
46.75,71.7,76.3,75.4,74.4,2.5
47.0,72.2,76.3,76.1,74.9,2.3
47.25,71.8,76.1,76.7,74.9,2.7
47.5,71.1,74.8,75.5,73.8,2.3
47.75,72.0,75.9,74.9,74.3,2.1
48.0,70.9,75.5,75.4,74.0,2.6
48.25,71.0,75.3,74.4,73.6,2.3
48.5,71.3,75.8,74.4,73.8,2.3
48.75,71.7,74.2,74.0,73.3,1.4
49.0,71.3,74.4,74.3,73.4,1.7
49.25,71.1,72.9,72.7,72.2,1.0
49.5,72.1,74.1,73.3,73.2,1.0
49.75,73.1,73.8,73.2,73.4,0.4
50.0,72.1,73.0,72.8,72.6,0.5
50.25,72.1,73.0,72.0,72.4,0.5
50.5,71.8,73.1,71.8,72.2,0.7
50.75,72.5,71.9,71.9,72.1,0.3
51.0,72.9,72.1,71.5,72.2,0.7
51.25,72.3,71.2,70.5,71.3,0.9
51.5,72.4,71.7,70.3,71.5,1.1
51.75,72.5,71.6,70.4,71.5,1.1
52.0,72.1,71.3,69.3,70.9,1.5
52.25,72.2,71.8,68.4,70.8,2.1
52.5,71.6,70.7,68.0,70.1,1.9
52.75,72.1,71.4,68.8,70.8,1.7
53.0,72.1,70.3,67.3,69.9,2.5
53.25,71.5,69.8,66.8,69.4,2.4
53.5,71.8,69.6,66.3,69.2,2.8
53.75,72.1,69.3,66.3,69.2,2.9
54.0,71.3,69.1,65.2,68.5,3.1
54.25,70.7,69.1,64.7,68.2,3.1
54.5,70.1,68.2,64.1,67.4,3.0
54.75,71.4,68.8,64.7,68.3,3.4
55.0,70.7,68.6,64.2,67.9,3.3
55.25,70.6,67.9,64.3,67.6,3.2
55.5,70.9,67.5,63.5,67.3,3.7
55.75,70.6,66.7,63.1,66.8,3.7
56.0,69.7,67.3,63.2,66.7,3.3
56.25,70.7,67.9,62.7,67.1,4.0
56.5,68.5,66.9,63.8,66.4,2.4
56.75,68.8,66.8,62.5,66.0,3.2
57.0,69.9,67.6,62.2,66.6,4.0
57.25,68.8,66.7,61.2,65.6,3.9
57.5,68.9,66.4,62.2,65.8,3.3
57.75,68.2,66.7,60.7,65.2,4.0
58.0,68.4,66.6,60.6,65.2,4.1
58.25,67.3,66.8,60.8,65.0,3.6
58.5,67.8,65.6,59.8,64.4,4.1
58.75,67.2,67.3,59.6,64.7,4.4
59.0,67.6,66.5,59.9,64.7,4.2
59.25,66.4,66.9,58.8,64.0,4.5
59.5,66.4,67.4,59.7,64.5,4.2
59.75,65.8,65.6,58.4,63.3,4.2
60.0,66.5,65.5,58.0,63.3,4.6
60.25,66.2,64.9,58.3,63.1,4.2
60.5,66.2,65.6,57.5,63.1,4.8
60.75,65.5,66.5,57.4,63.1,5.0
61.0,65.4,65.7,57.5,62.9,4.7
61.25,64.8,65.7,56.8,62.4,4.9
61.5,64.4,65.8,56.8,62.4,4.8
61.75,63.8,65.3,57.1,62.1,4.4
62.0,63.6,65.2,56.1,61.6,4.9
62.25,63.5,65.3,55.5,61.4,5.2
62.5,63.7,64.7,55.3,61.3,5.1
62.75,63.2,64.9,55.8,61.3,4.8
63.0,62.7,64.5,55.3,60.8,4.9
63.25,63.4,65.7,55.0,61.4,5.6
63.5,63.1,64.8,55.3,61.1,5.1
63.75,62.1,64.4,55.1,60.5,4.9
64.0,61.8,64.6,54.7,60.3,5.1
64.25,62.5,65.0,55.6,61.0,4.9
64.5,61.2,63.7,54.4,59.8,4.8
64.75,61.1,63.7,55.1,60.0,4.4
65.0,61.9,63.6,54.3,59.9,5.0
65.25,60.8,63.4,53.7,59.3,5.0
65.5,61.0,63.4,54.1,59.5,4.9
65.75,59.7,63.6,53.7,59.0,5.0
66.0,60.1,62.7,53.1,58.6,5.0
66.25,59.1,62.5,53.1,58.2,4.8
66.5,59.6,63.5,53.6,58.9,5.0
66.75,59.5,62.5,53.4,58.5,4.7
67.0,59.1,62.1,52.9,58.0,4.7
67.25,58.8,62.9,52.8,58.1,5.1
67.5,58.9,62.3,52.3,57.8,5.0
67.75,57.9,62.1,52.7,57.6,4.7
68.0,58.3,62.5,51.6,57.5,5.5
68.25,58.0,61.8,51.7,57.2,5.1
68.5,57.2,62.4,51.7,57.1,5.3
68.75,56.4,61.8,51.3,56.5,5.3
69.0,56.0,61.3,51.6,56.3,4.9
69.25,56.1,62.1,50.7,56.3,5.7
69.5,56.0,63.0,51.1,56.7,5.9
69.75,56.1,61.5,51.3,56.3,5.1
70.0,55.8,61.5,51.0,56.1,5.3
70.25,55.3,61.2,50.7,55.7,5.3
70.5,54.7,60.2,51.3,55.4,4.5
70.75,54.5,60.9,50.7,55.4,5.1
71.0,55.3,60.4,50.6,55.4,4.9
71.25,54.5,60.5,50.5,55.1,5.0
71.5,53.9,60.4,50.7,55.0,4.9
71.75,54.3,60.8,50.5,55.2,5.2
72.0,53.9,60.0,50.7,54.9,4.7
72.25,54.1,60.2,50.0,54.8,5.2
72.5,53.8,61.1,50.2,55.0,5.6
72.75,54.0,60.0,50.1,54.7,5.0
73.0,53.7,59.3,50.2,54.4,4.6
73.25,53.0,60.4,50.1,54.5,5.3
73.5,52.8,61.3,49.5,54.5,6.1
73.75,53.8,59.6,49.6,54.3,5.0
74.0,53.4,59.8,50.1,54.4,4.9
74.25,53.4,59.4,50.3,54.4,4.6
74.5,53.0,59.4,49.5,54.0,5.0
74.75,52.2,59.0,49.1,53.4,5.1
75.0,52.8,59.7,48.9,53.8,5.4
75.25,53.3,59.3,49.4,54.0,5.0
75.5,53.5,58.7,49.2,53.8,4.8
75.75,53.4,59.1,48.8,53.7,5.2
76.0,53.2,58.8,48.3,53.4,5.2
76.25,53.6,58.3,48.6,53.5,4.9
76.5,52.2,58.8,49.3,53.4,4.9
76.75,52.7,58.8,48.6,53.4,5.1
77.0,52.6,57.9,48.6,53.1,4.7
77.25,52.1,58.2,48.1,52.8,5.1
77.5,52.0,56.6,48.2,52.3,4.2
77.75,52.5,58.1,48.0,52.9,5.1
78.0,51.6,57.2,48.0,52.3,4.7
78.25,51.5,57.6,48.4,52.5,4.7
78.5,52.0,57.7,47.6,52.4,5.1
78.75,50.7,58.5,48.0,52.4,5.5
79.0,50.9,57.0,47.5,51.8,4.8
79.25,50.8,57.0,47.8,51.9,4.7
79.5,50.6,57.2,48.0,51.9,4.7
79.75,49.7,57.2,47.7,51.5,5.0
80.0,51.0,57.7,47.8,52.2,5.1
80.25,49.9,57.1,46.6,51.2,5.4
80.5,49.6,57.9,47.1,51.5,5.7
80.75,49.7,57.2,46.9,51.3,5.4
81.0,49.4,56.9,46.7,51.0,5.3
81.25,49.2,57.0,46.7,51.0,5.4
81.5,48.5,57.2,46.9,50.9,5.5
81.75,49.1,56.8,47.1,51.0,5.1
82.0,48.9,57.4,46.8,51.0,5.6
82.25,48.5,57.7,46.6,50.9,6.0
82.5,48.2,56.2,46.6,50.3,5.1
82.75,48.3,58.6,46.1,51.0,6.7
83.0,48.5,56.9,46.7,50.7,5.4
83.25,47.9,56.5,45.4,49.9,5.8
83.5,48.2,56.8,45.7,50.2,5.8
83.75,47.8,56.4,46.0,50.1,5.6
84.0,47.5,56.8,44.6,49.6,6.4
84.25,46.2,56.7,45.6,49.5,6.2
84.5,47.5,57.2,45.2,49.9,6.4
84.75,46.6,56.7,45.6,49.6,6.1
85.0,45.8,56.0,44.8,48.9,6.2
85.25,45.7,55.3,45.0,48.7,5.8
85.5,45.0,55.1,45.6,48.6,5.7
85.75,45.3,55.3,45.3,48.6,5.7
86.0,45.2,55.2,44.9,48.4,5.9
86.25,44.4,54.9,45.1,48.1,5.9
86.5,44.5,54.2,45.5,48.0,5.4
86.75,44.0,54.8,45.0,47.9,6.0
87.0,43.9,55.1,45.1,48.0,6.1
87.25,43.8,54.7,44.7,47.7,6.1
87.5,43.4,54.8,44.4,47.5,6.3
87.75,42.9,54.2,44.1,47.1,6.2
88.0,43.2,54.4,44.1,47.2,6.2
88.25,42.7,54.6,44.6,47.3,6.4
88.5,42.6,54.6,44.0,47.0,6.6
88.75,42.0,54.5,43.7,46.7,6.8
89.0,41.9,54.6,44.5,47.0,6.7
89.25,41.8,55.2,43.5,46.8,7.3
89.5,42.0,54.1,43.5,46.5,6.6
89.75,41.3,54.2,43.5,46.3,6.9
90.0,40.6,54.0,43.5,46.0,7.1
90.25,41.2,54.9,44.2,46.8,7.2
90.5,41.1,54.7,43.5,46.4,7.3
90.75,40.8,54.6,43.5,46.3,7.3
91.0,40.8,54.4,43.4,46.2,7.2
91.25,40.6,53.8,43.9,46.1,6.9
91.5,40.6,53.3,43.6,45.9,6.6
91.75,40.1,53.0,43.6,45.6,6.7
92.0,40.0,53.2,43.3,45.5,6.9
92.25,39.3,53.1,42.7,45.0,7.2
92.5,39.5,52.5,43.3,45.1,6.7
92.75,39.6,52.5,43.1,45.1,6.7
93.0,39.3,52.0,42.9,44.7,6.5
93.25,39.3,52.1,43.5,45.0,6.5
93.5,38.5,51.1,42.4,44.0,6.4
93.75,39.3,50.9,42.8,44.3,6.0
94.0,38.7,52.0,42.4,44.3,6.9
94.25,38.9,51.2,42.8,44.3,6.3
94.5,38.9,50.4,42.6,44.0,5.9
94.75,38.1,50.3,42.6,43.6,6.2
95.0,38.2,50.8,42.4,43.8,6.4
95.25,38.3,50.4,42.6,43.7,6.1
95.5,38.0,50.3,41.8,43.4,6.3
95.75,38.8,51.0,42.8,44.2,6.2
96.0,37.7,49.5,42.1,43.1,6.0
96.25,38.3,49.6,42.2,43.3,5.7
96.5,37.5,49.6,41.8,43.0,6.1
96.75,37.5,49.0,42.2,42.9,5.8
97.0,37.4,48.9,42.6,42.9,5.8
97.25,37.5,48.5,42.7,42.9,5.5
97.5,37.6,48.3,41.5,42.5,5.4
97.75,37.2,48.2,42.2,42.5,5.5
98.0,36.0,47.9,41.2,41.7,6.0
98.25,36.8,47.5,41.7,42.0,5.3
98.5,36.3,47.3,42.5,42.1,5.5
98.75,36.1,47.4,42.0,41.8,5.7
99.0,35.9,47.3,42.8,42.0,5.8
99.25,35.7,47.1,41.4,41.4,5.7
99.5,35.5,46.8,42.7,41.7,5.7
99.75,35.6,46.4,42.0,41.3,5.4
100.0,35.5,45.8,41.4,40.9,5.1
100.25,35.6,46.0,41.5,41.0,5.2
100.5,35.2,46.1,41.0,40.8,5.4
100.75,34.9,44.9,41.1,40.3,5.1
101.0,35.0,45.4,41.0,40.5,5.2
101.25,35.8,44.9,40.7,40.5,4.5
101.5,35.6,45.1,41.0,40.6,4.8
101.75,35.0,44.6,40.6,40.1,4.8
102.0,35.2,44.3,41.3,40.3,4.6
102.25,35.1,44.9,39.8,40.0,4.9
102.5,35.2,44.1,40.2,39.9,4.5
102.75,35.3,44.7,39.9,40.0,4.7
103.0,35.5,44.5,39.8,39.9,4.5
103.25,36.2,43.4,39.5,39.7,3.6
103.5,35.5,44.1,39.6,39.7,4.3
103.75,35.4,44.0,39.5,39.6,4.3
104.0,36.0,43.5,39.5,39.7,3.8
104.25,35.8,43.3,39.8,39.6,3.8
104.5,36.2,43.8,39.9,40.0,3.8
104.75,35.7,43.9,39.4,39.7,4.1
105.0,36.0,43.8,39.5,39.8,3.9
105.25,35.4,43.8,39.3,39.5,4.2
105.5,35.7,43.6,39.2,39.5,3.9
105.75,35.7,43.8,39.2,39.6,4.1
106.0,35.7,42.6,39.8,39.4,3.5
106.25,34.8,43.2,39.9,39.3,4.2
106.5,35.0,43.2,39.2,39.1,4.1
106.75,34.7,43.6,40.1,39.5,4.5
107.0,34.9,43.1,40.0,39.3,4.2
107.25,35.0,43.3,39.9,39.4,4.2
107.5,34.8,43.0,39.6,39.1,4.1
107.75,34.5,43.0,39.8,39.1,4.3
108.0,34.8,42.8,39.3,39.0,4.0
108.25,34.1,42.8,39.7,38.9,4.4
108.5,34.1,43.1,39.7,38.9,4.5
108.75,34.6,43.1,39.6,39.1,4.2
109.0,33.9,42.2,39.3,38.4,4.2
109.25,34.0,42.2,39.3,38.5,4.2
109.5,34.1,42.4,39.0,38.5,4.2
109.75,34.5,42.0,39.4,38.6,3.8
110.0,34.2,41.7,39.1,38.3,3.8
110.25,33.8,41.2,38.6,37.9,3.8
110.5,33.8,41.4,38.7,38.0,3.8
110.75,33.9,40.9,38.5,37.8,3.5
111.0,34.1,40.4,38.5,37.7,3.3
111.25,34.0,40.8,38.3,37.7,3.4
111.5,34.0,40.3,38.3,37.5,3.2
111.75,33.9,40.3,38.6,37.6,3.3
112.0,33.4,39.7,38.3,37.2,3.3
112.25,33.3,39.8,38.5,37.2,3.4
112.5,33.7,39.9,37.9,37.1,3.2
112.75,33.4,39.5,37.5,36.8,3.1
113.0,33.2,39.1,37.6,36.6,3.1
113.25,33.0,39.3,37.4,36.6,3.2
113.5,33.0,39.1,37.4,36.5,3.2
113.75,33.2,38.9,37.2,36.4,2.9
114.0,33.4,38.0,37.2,36.2,2.4
114.25,32.9,38.2,36.8,35.9,2.7
114.5,33.2,38.4,36.7,36.1,2.7
114.75,32.9,38.0,37.3,36.1,2.8
115.0,33.0,37.2,36.5,35.6,2.2
115.25,32.9,38.3,36.7,36.0,2.8
115.5,33.2,38.7,37.1,36.3,2.8
115.75,32.6,38.1,36.7,35.8,2.9
116.0,32.9,37.6,36.7,35.8,2.5
116.25,33.0,38.0,36.5,35.8,2.6
116.5,33.2,37.2,36.6,35.7,2.2
116.75,32.9,37.7,35.9,35.5,2.4
117.0,33.6,37.6,37.1,36.1,2.2
117.25,33.2,37.5,36.3,35.7,2.2
117.5,33.0,37.6,36.5,35.7,2.4
117.75,33.5,37.7,36.0,35.7,2.1
118.0,33.3,37.8,35.5,35.5,2.2
118.25,33.5,37.0,35.7,35.4,1.8
118.5,33.6,37.0,35.5,35.4,1.7
118.75,33.3,37.1,35.6,35.4,1.9
119.0,34.0,36.9,35.7,35.6,1.4
119.25,33.9,36.6,35.8,35.4,1.4
119.5,33.6,36.8,35.0,35.2,1.6
119.75,34.0,36.7,35.2,35.3,1.4
120.0,33.8,36.3,34.6,34.9,1.3
120.25,34.1,36.3,34.7,35.0,1.1
120.5,33.8,36.6,34.5,34.9,1.5
120.75,33.9,36.5,33.9,34.8,1.5
121.0,33.7,36.6,34.2,34.8,1.6
121.25,33.5,37.1,34.0,34.9,2.0
121.5,34.1,36.4,33.3,34.6,1.6
121.75,33.4,36.4,33.2,34.3,1.8
122.0,33.4,36.0,33.4,34.3,1.5
122.25,33.7,36.5,32.9,34.4,1.9
122.5,33.4,36.4,32.5,34.1,2.0
122.75,33.3,36.5,32.0,33.9,2.3
123.0,32.8,36.5,31.9,33.7,2.4
123.25,33.7,36.6,31.8,34.1,2.4
123.5,33.5,37.2,31.7,34.2,2.8
123.75,33.4,35.9,31.3,33.5,2.3
124.0,33.2,36.1,31.7,33.7,2.2
124.25,33.0,36.8,31.1,33.7,2.9
124.5,33.3,36.5,30.8,33.5,2.8
124.75,32.9,36.3,30.6,33.3,2.9
125.0,33.0,36.0,30.2,33.1,2.9
125.25,33.4,36.2,29.9,33.2,3.2
125.5,33.3,36.4,30.3,33.3,3.1
125.75,33.1,36.5,29.9,33.2,3.3
126.0,33.9,36.5,29.5,33.3,3.5
126.25,32.7,36.5,30.0,33.1,3.3
126.5,32.9,36.4,29.7,33.0,3.3
126.75,32.9,36.2,29.2,32.8,3.5
127.0,33.0,36.1,29.0,32.7,3.6
127.25,33.0,36.1,29.1,32.7,3.5
127.5,33.3,36.0,29.1,32.8,3.5
127.75,33.2,35.8,28.8,32.6,3.5
128.0,32.7,36.0,28.9,32.6,3.5
128.25,32.4,35.8,28.7,32.3,3.6
128.5,32.5,36.0,28.7,32.4,3.6
128.75,32.0,35.8,29.0,32.3,3.4
129.0,32.1,35.6,28.7,32.1,3.4
129.25,32.3,35.4,29.2,32.3,3.1
129.5,31.6,35.8,28.9,32.1,3.5
129.75,31.7,35.7,29.2,32.2,3.3
130.0,31.6,35.4,29.1,32.0,3.2
130.25,31.8,35.7,28.6,32.0,3.6
130.5,31.5,35.0,29.0,31.8,3.0
130.75,31.2,35.2,29.3,31.9,3.0
131.0,31.1,35.4,29.1,31.9,3.2
131.25,31.6,35.0,29.5,32.1,2.8
131.5,30.7,34.5,29.2,31.5,2.7
131.75,31.1,34.7,29.6,31.8,2.6
132.0,30.5,34.2,29.7,31.5,2.4
132.25,30.2,35.0,29.5,31.6,3.0
132.5,30.8,34.5,29.5,31.6,2.6
132.75,30.5,34.3,29.9,31.6,2.4
133.0,30.3,34.6,30.2,31.7,2.5
133.25,30.0,33.9,30.6,31.5,2.1
133.5,29.5,34.3,30.3,31.3,2.6
133.75,29.6,33.9,30.3,31.3,2.3
134.0,29.4,33.9,30.5,31.3,2.4
134.25,29.4,33.6,30.9,31.3,2.1
134.5,28.7,33.7,30.5,31.0,2.5
134.75,28.4,33.6,30.9,31.0,2.6
135.0,28.6,33.0,30.9,30.8,2.2
135.25,28.0,33.7,30.5,30.7,2.9
135.5,28.1,33.3,31.1,30.8,2.6
135.75,27.7,32.9,30.9,30.5,2.6
136.0,27.0,33.4,31.0,30.5,3.3
136.25,27.3,33.0,31.3,30.6,2.9
136.5,26.8,32.8,31.1,30.2,3.1
136.75,27.3,32.9,31.4,30.5,2.9
137.0,27.1,32.1,31.3,30.2,2.7
137.25,26.6,32.2,31.1,30.0,3.0
137.5,26.8,32.2,31.3,30.1,2.8
137.75,26.5,31.7,31.3,29.8,2.9
138.0,26.4,31.8,31.2,29.8,3.0
138.25,26.5,31.4,,29.0,3.5
138.5,26.3,31.3,,28.8,3.5
138.75,25.9,31.4,,28.7,3.9
139.0,25.8,31.1,,28.4,3.7
139.25,25.9,30.8,,28.4,3.5
139.5,25.9,31.0,,28.4,3.6
139.75,25.5,31.2,,28.3,4.0
140.0,25.8,30.6,,28.2,3.4
140.25,25.1,30.7,,27.9,3.9
140.5,25.0,,,25.0,
140.75,24.8,,,24.8,
141.0,24.7,,,24.7,
141.25,24.5,,,24.5,
141.5,24.6,,,24.6,
141.75,24.3,,,24.3,
142.0,24.3,,,24.3,
142.25,24.2,,,24.2,
142.5,24.0,,,24.0,
142.75,23.9,,,23.9,
143.0,23.9,,,23.9,
143.25,24.4,,,24.4,
143.5,23.9,,,23.9,
143.75,23.5,,,23.5,
144.0,23.7,,,23.7,
144.25,23.5,,,23.5,
144.5,23.1,,,23.1,
144.75,23.4,,,23.4,
145.0,23.2,,,23.2,
145.25,23.3,,,23.3,
145.5,22.5,,,22.5,
145.75,22.6,,,22.6,
146.0,22.3,,,22.3,
146.25,22.4,,,22.4,
146.5,22.5,,,22.5,
146.75,22.1,,,22.1,
147.0,22.0,,,22.0,
147.25,21.7,,,21.7,
147.5,21.7,,,21.7,
147.75,21.9,,,21.9,
148.0,21.3,,,21.3,
148.25,21.4,,,21.4,
148.5,21.2,,,21.2,
148.75,21.4,,,21.4,
149.0,21.5,,,21.5,
149.25,21.2,,,21.2,
149.5,21.7,,,21.7,
149.75,21.3,,,21.3,
150.0,21.2,,,21.2,
150.25,21.2,,,21.2,
150.5,21.4,,,21.4,
150.75,20.9,,,20.9,
151.0,21.1,,,21.1,
151.25,21.1,,,21.1,
151.5,21.1,,,21.1,
151.75,21.0,,,21.0,
152.0,21.0,,,21.0,
152.25,21.1,,,21.1,
152.5,20.8,,,20.8,
152.75,21.0,,,21.0,
153.0,21.1,,,21.1,
153.25,20.9,,,20.9,
153.5,21.4,,,21.4,
153.75,21.0,,,21.0,
154.0,20.8,,,20.8,
154.25,21.0,,,21.0,
154.5,20.9,,,20.9,
154.75,20.8,,,20.8,
155.0,20.9,,,20.9,
155.25,20.8,,,20.8,
155.5,21.0,,,21.0,
155.75,21.0,,,21.0,
156.0,21.0,,,21.0,
156.25,21.0,,,21.0,
156.5,20.9,,,20.9,
156.75,20.9,,,20.9,
157.0,21.3,,,21.3,
157.25,20.6,,,20.6,
157.5,20.8,,,20.8,
157.75,21.1,,,21.1,
158.0,20.8,,,20.8,
158.25,20.9,,,20.9,
158.5,20.9,,,20.9,
158.75,20.3,,,20.3,
159.0,20.3,,,20.3,
159.25,20.1,,,20.1,
159.5,20.0,,,20.0,
159.75,19.8,,,19.8,
160.0,19.9,,,19.9,
160.25,19.8,,,19.8,
160.5,19.6,,,19.6,
160.75,19.5,,,19.5,
161.0,19.3,,,19.3,
161.25,19.3,,,19.3,
161.5,19.1,,,19.1,
161.75,19.1,,,19.1,
162.0,19.2,,,19.2,
162.25,19.1,,,19.1,
162.5,19.1,,,19.1,
162.75,19.3,,,19.3,
163.0,18.9,,,18.9,
163.25,19.0,,,19.0,
163.5,18.9,,,18.9,
163.75,19.0,,,19.0,
164.0,18.8,,,18.8,
164.25,18.8,,,18.8,
164.5,18.4,,,18.4,
164.75,18.2,,,18.2,
165.0,18.4,,,18.4,
165.25,18.0,,,18.0,
165.5,17.9,,,17.9,
165.75,18.0,,,18.0,
166.0,18.1,,,18.1,
166.25,18.1,,,18.1,
166.5,18.2,,,18.2,
166.75,18.0,,,18.0,
167.0,17.9,,,17.9,
167.25,18.1,,,18.1,
167.5,18.1,,,18.1,
167.75,18.2,,,18.2,
168.0,18.1,,,18.1,
168.25,17.9,,,17.9,
168.5,18.2,,,18.2,
168.75,18.0,,,18.0,
169.0,18.3,,,18.3,
169.25,18.3,,,18.3,
169.5,18.1,,,18.1,
169.75,18.3,,,18.3,
170.0,18.2,,,18.2,
170.25,18.2,,,18.2,
170.5,18.2,,,18.2,
170.75,18.2,,,18.2,
171.0,18.2,,,18.2,
171.25,18.4,,,18.4,
171.5,18.3,,,18.3,
171.75,18.1,,,18.1,
172.0,18.4,,,18.4,
172.25,18.3,,,18.3,
172.5,18.0,,,18.0,
172.75,17.8,,,17.8,
173.0,17.8,,,17.8,
173.25,17.7,,,17.7,
173.5,17.8,,,17.8,
173.75,17.5,,,17.5,
174.0,17.7,,,17.7,
174.25,17.4,,,17.4,
174.5,17.4,,,17.4,
174.75,17.4,,,17.4,
175.0,17.4,,,17.4,
175.25,17.3,,,17.3,
175.5,17.4,,,17.4,
175.75,17.4,,,17.4,
176.0,17.4,,,17.4,
176.25,17.2,,,17.2,
176.5,17.2,,,17.2,
176.75,17.1,,,17.1,
177.0,17.1,,,17.1,
177.25,17.0,,,17.0,
177.5,17.1,,,17.1,
177.75,16.8,,,16.8,
178.0,16.9,,,16.9,
178.25,17.0,,,17.0,
178.5,17.2,,,17.2,
178.75,17.1,,,17.1,
179.0,17.0,,,17.0,
179.25,16.9,,,16.9,
179.5,17.0,,,17.0,
179.75,17.0,,,17.0,
180.0,17.2,,,17.2,
180.25,16.9,,,16.9,
180.5,17.2,,,17.2,
180.75,16.9,,,16.9,
181.0,17.0,,,17.0,
181.25,17.1,,,17.1,
181.5,17.3,,,17.3,
181.75,17.0,,,17.0,
182.0,17.0,,,17.0,
182.25,17.0,,,17.0,
182.5,16.9,,,16.9,
182.75,17.0,,,17.0,
183.0,17.0,,,17.0,
183.25,16.9,,,16.9,
183.5,16.8,,,16.8,
183.75,17.0,,,17.0,
184.0,16.9,,,16.9,
184.25,16.7,,,16.7,
184.5,16.9,,,16.9,
184.75,16.9,,,16.9,
185.0,16.9,,,16.9,
185.25,16.9,,,16.9,
185.5,16.5,,,16.5,
185.75,16.6,,,16.6,
186.0,16.7,,,16.7,
186.25,16.4,,,16.4,
186.5,16.2,,,16.2,
186.75,16.6,,,16.6,
187.0,16.3,,,16.3,
187.25,15.9,,,15.9,
187.5,16.2,,,16.2,
187.75,16.5,,,16.5,
188.0,16.0,,,16.0,
188.25,16.2,,,16.2,
188.5,16.3,,,16.3,
188.75,16.1,,,16.1,
189.0,16.1,,,16.1,
189.25,16.5,,,16.5,
189.5,16.4,,,16.4,
189.75,16.6,,,16.6,
190.0,16.3,,,16.3,
190.25,16.5,,,16.5,
190.5,16.5,,,16.5,
190.75,16.6,,,16.6,
191.0,16.7,,,16.7,
191.25,16.7,,,16.7,
191.5,16.7,,,16.7,
191.75,16.8,,,16.8,
192.0,16.7,,,16.7,
192.25,16.9,,,16.9,
192.5,16.9,,,16.9,
192.75,16.8,,,16.8,
193.0,16.9,,,16.9,
193.25,17.0,,,17.0,
193.5,16.8,,,16.8,
193.75,16.5,,,16.5,
194.0,16.5,,,16.5,
194.25,16.7,,,16.7,
194.5,16.3,,,16.3,
194.75,16.3,,,16.3,
195.0,16.2,,,16.2,
195.25,16.2,,,16.2,
195.5,16.2,,,16.2,
195.75,15.9,,,15.9,
196.0,16.4,,,16.4,
196.25,15.9,,,15.9,
196.5,16.1,,,16.1,
196.75,16.0,,,16.0,
197.0,16.1,,,16.1,
197.25,15.8,,,15.8,
197.5,15.9,,,15.9,
197.75,16.0,,,16.0,
198.0,15.9,,,15.9,
198.25,15.9,,,15.9,
198.5,15.9,,,15.9,
198.75,16.1,,,16.1,
199.0,15.8,,,15.8,
199.25,15.8,,,15.8,
199.5,15.7,,,15.7,
199.75,15.8,,,15.8,
200.0,15.7,,,15.7,
200.25,15.9,,,15.9,
200.5,15.9,,,15.9,
200.75,15.7,,,15.7,
201.0,15.8,,,15.8,
201.25,15.9,,,15.9,
201.5,15.6,,,15.6,
201.75,15.8,,,15.8,
202.0,15.6,,,15.6,
202.25,15.6,,,15.6,
202.5,15.7,,,15.7,
202.75,15.9,,,15.9,
203.0,15.7,,,15.7,
203.25,15.9,,,15.9,
203.5,15.9,,,15.9,
203.75,15.8,,,15.8,
204.0,16.2,,,16.2,
204.25,16.0,,,16.0,
204.5,16.1,,,16.1,
204.75,16.1,,,16.1,
205.0,16.3,,,16.3,
205.25,16.0,,,16.0,
205.5,16.0,,,16.0,
205.75,16.0,,,16.0,
206.0,16.1,,,16.1,
206.25,16.1,,,16.1,
206.5,16.2,,,16.2,
206.75,16.0,,,16.0,
207.0,16.2,,,16.2,
207.25,16.4,,,16.4,
207.5,16.1,,,16.1,
207.75,16.0,,,16.0,
208.0,16.2,,,16.2,
208.25,16.2,,,16.2,
208.5,16.4,,,16.4,
208.75,16.2,,,16.2,
209.0,16.4,,,16.4,
209.25,16.1,,,16.1,
209.5,16.3,,,16.3,
209.75,16.2,,,16.2,
210.0,16.2,,,16.2,
210.25,16.5,,,16.5,
210.5,16.4,,,16.4,
210.75,16.5,,,16.5,
211.0,16.3,,,16.3,
211.25,16.5,,,16.5,
211.5,16.8,,,16.8,
211.75,16.4,,,16.4,
212.0,16.6,,,16.6,
212.25,16.5,,,16.5,
212.5,16.6,,,16.6,
212.75,16.6,,,16.6,
213.0,16.8,,,16.8,
213.25,16.7,,,16.7,
213.5,16.5,,,16.5,
213.75,16.4,,,16.4,
214.0,16.4,,,16.4,
214.25,16.4,,,16.4,
214.5,16.4,,,16.4,
214.75,16.4,,,16.4,
215.0,16.5,,,16.5,
215.25,16.3,,,16.3,
215.5,16.2,,,16.2,
215.75,16.3,,,16.3,
216.0,16.2,,,16.2,
216.25,16.4,,,16.4,
216.5,16.4,,,16.4,
216.75,16.8,,,16.8,
217.0,16.8,,,16.8,
217.25,16.6,,,16.6,
217.5,16.7,,,16.7,
217.75,16.9,,,16.9,
218.0,17.0,,,17.0,
218.25,16.9,,,16.9,
218.5,16.6,,,16.6,
218.75,16.7,,,16.7,
219.0,16.7,,,16.7,
219.25,16.8,,,16.8,
219.5,16.6,,,16.6,
219.75,16.5,,,16.5,
220.0,16.5,,,16.5,
220.25,16.6,,,16.6,
220.5,16.5,,,16.5,
220.75,16.4,,,16.4,
221.0,16.2,,,16.2,
221.25,16.4,,,16.4,
221.5,16.3,,,16.3,
221.75,16.2,,,16.2,
222.0,16.2,,,16.2,
222.25,16.1,,,16.1,
222.5,16.3,,,16.3,
222.75,16.3,,,16.3,
223.0,16.2,,,16.2,
223.25,16.3,,,16.3,
223.5,16.2,,,16.2,
223.75,16.1,,,16.1,
224.0,16.2,,,16.2,
224.25,16.0,,,16.0,
224.5,16.3,,,16.3,
224.75,16.2,,,16.2,
225.0,15.9,,,15.9,
225.25,16.4,,,16.4,
225.5,16.2,,,16.2,
225.75,16.1,,,16.1,
226.0,16.3,,,16.3,
226.25,16.2,,,16.2,
226.5,16.0,,,16.0,
226.75,16.2,,,16.2,
227.0,16.3,,,16.3,
227.25,16.1,,,16.1,
227.5,15.9,,,15.9,
227.75,16.0,,,16.0,
228.0,16.1,,,16.1,
228.25,16.1,,,16.1,
228.5,16.2,,,16.2,
228.75,16.2,,,16.2,
229.0,16.1,,,16.1,
229.25,16.1,,,16.1,
229.5,16.3,,,16.3,
229.75,16.4,,,16.4,
230.0,16.3,,,16.3,
230.25,16.2,,,16.2,
230.5,16.4,,,16.4,
230.75,16.3,,,16.3,