File: 01_Data/Cellulose_Insulation/Cone/Cellulose_Insulation_Cone_HF25Scan_230613_R2.csv
Names,Time,Stack TC,Smoke TC,Exh Press,Smoke Comp,Smoke Meas,CO Meter,CO2 Meter,O2 Meter,Sample Mass,Ext Coeff,Start Test,Flame Verif
Chan Gain,,500,500,1,1,1,1,1,1,1,1,1.0,1.0
Offset,,0,0,0.142142,0,0,0,0,0,0,0,0.0,0.0
Gain,,1,1,25.011,13.4675,16.3006,1,1,1,1.00097,1.04429,1.0,1.0
Units,sec,C,C,Pa,%,%,%,%,%,g,/m,,
Baseline,,25.7491,26.8852,158.058,100.922,100.942,0.000154876,0.0455816,20.9629,-444.992,-0.00185063,,
3,0.5,23.7533,24.4047,161.392,100.709,100.572,-3.05555e-05,0.0491948,20.9616,57.5455,0.0124535,0.0,0.0
6,1.25,23.678,24.3948,157.545,100.684,100.575,-6.74009e-05,0.0498205,20.9615,57.5855,0.00990896,0.0,0.0
9,2,23.7782,24.4036,159.134,100.67,100.419,-9.03166e-05,0.0510451,20.9614,57.5455,0.0229144,0.0,0.0
12,2.75,23.5856,24.2173,156.877,100.628,100.065,-0.000100277,0.0525939,20.9614,57.6055,0.0514199,0.0,0.0
15,3.5,23.2909,23.985,159.011,100.609,99.6634,-9.50658e-05,0.0540026,20.9614,57.4754,0.0865225,0.0,0.0
18,4.25,23.7584,24.3032,156.814,100.585,99.3435,-9.1267e-05,0.0558832,20.9614,57.5355,0.1138,0.0,0.0
21,5,23.5431,24.5946,158.63,100.57,98.8873,-5.64248e-05,0.0573002,20.9596,57.5655,0.154573,0.0,0.0
24,5.75,23.6066,24.4482,157.875,100.544,98.8306,-2.18164e-05,0.0584121,20.9575,57.5355,0.157432,0.0,0.0
27,6.5,24.1985,25.134,160.274,100.523,98.2033,1.91595e-05,0.0591058,20.9548,57.5055,0.213888,0.0,0.0
30,7.25,23.6935,25.0536,157.713,100.505,97.8377,5.43797e-05,0.0595617,20.9523,57.4954,0.246372,0.0,0.0
33,8,23.6651,24.7759,156.147,100.479,97.2278,7.88056e-05,0.0597066,20.9503,57.4854,0.301331,0.0,0.0
36,8.75,23.6725,24.4075,157.3,100.466,96.2523,9.60794e-05,0.0596371,20.9488,57.3953,0.392503,0.0,0.0
39,9.5,24.1262,24.7271,156.048,100.432,95.1972,9.26267e-05,0.0595117,20.9478,57.3753,0.4904,0.0,0.0
42,10.25,24.0027,25.4309,156.971,100.411,94.8957,6.88697e-05,0.059129,20.947,57.3453,0.517468,0.0,0.0
45,11,24.3815,25.1268,155.447,100.415,93.9769,4.2496e-05,0.0586895,20.9464,57.3553,0.607005,0.0,0.0
48,11.75,23.7692,24.9848,155.74,100.391,94.0371,7.02979e-06,0.0583007,20.946,57.1451,0.598965,0.0,1.0
51,12.5,24.0131,25.4444,139.029,100.391,98.6073,-2.11457e-05,0.0577468,20.9457,57.0951,0.164256,0.0,1.0
54,13.25,24.816,26.3528,137.396,100.371,100.704,-3.38153e-05,0.0571536,20.9461,56.9749,-0.0303643,0.0,1.0
57,14,25.0264,26.9183,141.022,100.372,100.539,-1.63248e-05,0.0565483,20.9469,56.8148,-0.0152237,0.0,1.0
60,14.75,26.0452,27.7381,140.85,100.353,101.101,1.14216e-05,0.0559497,20.9476,56.7047,-0.0680526,0.0,1.0
63,15.5,27.0084,29.0381,145.268,100.35,101.206,3.80417e-05,0.0552016,20.9482,56.6146,-0.0778657,0.0,1.0
66,16.25,25.8994,27.7815,141.165,100.332,100.862,5.74477e-05,0.0545414,20.9486,56.5445,-0.0482609,0.0,1.0
69,17,25.8867,28.2882,145.58,100.34,100.857,5.78485e-05,0.0538635,20.9493,56.5145,-0.0471412,0.0,0.0
72,17.75,26.3279,29.2566,147.153,100.338,100.667,5.22804e-05,0.0533111,20.9507,56.4244,-0.0299781,0.0,0.0
75,18.5,26.8349,30.0828,142.824,100.332,100.687,4.69717e-05,0.0528835,20.9517,56.3343,-0.0323055,0.0,0.0
78,19.25,27.8263,30.3536,144.691,100.334,100.689,5.44088e-05,0.055623,20.9524,56.0541,-0.0323822,0.0,0.0
81,20,27.8966,30.9102,144.178,100.341,100.86,8.00764e-05,0.0656695,20.9529,55.7738,-0.0472998,0.0,0.0
84,20.75,28.0088,31.3863,149.606,100.34,100.756,0.000155088,0.0845336,20.9531,56.1141,-0.0379273,0.0,0.0
87,21.5,28.3588,31.19,145.912,100.334,100.719,0.000263451,0.11834,20.9528,56.014,-0.0351431,0.0,0.0
90,22.25,28.7415,32.0278,147.993,100.335,100.958,0.000393195,0.152875,20.9519,55.954,-0.0566759,0.0,0.0
93,23,28.641,32.0404,147.158,100.325,100.902,0.000557578,0.182267,20.9513,55.8839,-0.0525575,0.0,0.0
96,23.75,29.2552,32.2547,149.696,100.333,100.726,0.000677413,0.207062,20.9291,55.7638,-0.0358058,0.0,0.0
99,24.5,29.5896,32.9243,151.233,100.343,100.471,0.000841838,0.230898,20.8944,55.7137,-0.0116679,0.0,0.0
102,25.25,29.7403,32.9087,146.923,100.337,100.445,0.000961704,0.248914,20.8612,55.7037,-0.00987924,0.0,0.0
105,26,29.7882,32.854,145.651,100.336,100.697,0.00108676,0.261306,20.8239,55.6437,-0.0328742,0.0,0.0
108,26.75,29.8865,33.4359,146.581,100.345,100.586,0.00118257,0.269072,20.7913,55.5636,-0.0219138,0.0,0.0
111,27.5,29.9384,33.7436,150.016,100.361,100.684,0.00126034,0.272591,20.7604,55.4935,-0.0293707,0.0,0.0
114,28.25,29.8492,33.8041,150.643,100.358,100.63,0.00133858,0.27321,20.7379,55.4435,-0.0248276,0.0,0.0
117,29,30.4407,34.234,151.078,100.356,100.824,0.00141703,0.271895,20.7215,55.3834,-0.0426124,0.0,0.0
120,29.75,30.3406,33.7648,146.353,100.377,100.672,0.00150259,0.269098,20.7096,55.3233,-0.026859,0.0,0.0
123,30.5,30.3634,34.4445,151.724,100.389,100.745,0.00159786,0.266276,20.7031,55.2633,-0.0324304,0.0,0.0
126,31.25,30.2776,34.0365,154.544,100.389,100.748,0.00170895,0.261614,20.7005,55.1732,-0.0326561,0.0,0.0
129,32,30.6527,34.2327,151.952,100.379,100.545,0.00180768,0.256705,20.7007,55.1031,-0.015122,0.0,0.0
132,32.75,30.9059,34.4052,147.434,100.407,100.5,0.00189229,0.252482,20.7017,55.0331,-0.0084839,0.0,0.0
135,33.5,30.937,34.1411,146.145,100.419,100.724,0.00195669,0.248187,20.7041,55.003,-0.0277484,0.0,0.0
138,34.25,31.2834,34.384,147.401,100.416,100.827,0.0019991,0.243788,20.709,54.8829,-0.0374536,0.0,0.0
141,35,31.001,34.4861,155.853,100.424,100.655,0.0020174,0.239876,20.7139,54.8429,-0.0210535,0.0,0.0
144,35.75,31.0924,35.0139,151.984,100.434,100.681,0.00202822,0.236366,20.7193,54.7428,-0.0224622,0.0,0.0
147,36.5,31.173,34.4561,151.908,100.454,100.748,0.00203836,0.232787,20.7252,54.7128,-0.0268163,0.0,0.0
150,37.25,31.2148,34.4601,149.554,100.461,100.707,0.00205143,0.230179,20.7304,54.7628,-0.0223413,0.0,0.0
153,38,31.4053,34.6365,148.719,100.467,100.808,0.00208242,0.227125,20.7346,54.6927,-0.0310053,0.0,0.0
156,38.75,31.1746,34.4997,148.273,100.486,100.683,0.00211417,0.224359,20.7389,54.6427,-0.0179286,0.0,0.0
159,39.5,31.2301,34.7872,148.914,100.503,100.678,0.00215395,0.221418,20.7421,54.5726,-0.0159774,0.0,0.0
162,40.25,31.6567,35.0814,149.124,100.511,100.813,0.00221138,0.218345,20.745,54.5626,-0.0275315,0.0,0.0
165,41,31.2154,34.5975,150.764,100.515,100.851,0.00225866,0.215709,20.7478,54.5126,-0.0305084,0.0,0.0
168,41.75,31.464,34.7975,152.855,100.517,101.017,0.00229113,0.212534,20.7511,54.4525,-0.0454384,0.0,0.0
171,42.5,31.5942,34.7814,150.899,100.531,100.96,0.00231139,0.209373,20.7535,54.4025,-0.0389757,0.0,0.0
174,43.25,31.3389,35.0324,155.957,100.547,100.909,0.00233517,0.206339,20.7571,54.3824,-0.0329022,0.0,0.0
177,44,31.784,34.6046,149.169,100.546,100.563,0.00237908,0.203494,20.7611,54.3524,-0.00150054,0.0,0.0
180,44.75,31.8374,34.393,155.487,100.545,100.942,0.00242241,0.200952,20.7653,54.3024,-0.0361604,0.0,0.0
183,45.5,31.847,34.8632,154,100.573,100.869,0.00250998,0.1989,20.7688,54.2623,-0.0269012,0.0,0.0
186,46.25,31.9385,35.0718,145.717,100.591,100.835,0.00257382,0.196537,20.7715,54.2323,-0.0222187,0.0,0.0
189,47,31.9474,35.1365,150.502,100.589,100.905,0.00268906,0.194816,20.7735,54.1823,-0.0286854,0.0,0.0
192,47.75,32.0553,35.1418,150.066,100.581,101.003,0.00277307,0.192504,20.7768,54.1122,-0.0383259,0.0,0.0
195,48.5,32.0098,35.2272,150.904,100.619,100.817,0.00285081,0.190369,20.7794,54.0721,-0.0180845,0.0,0.0
198,49.25,32.0908,35.6239,150.724,100.625,101.08,0.00291585,0.187973,20.7813,54.0121,-0.0413124,0.0,0.0
201,50,31.9733,35.09,150.719,100.633,100.747,0.00296555,0.185685,20.7834,53.972,-0.0104362,0.0,0.0
204,50.75,31.9336,35.0351,149.855,100.631,101.041,0.00301083,0.183786,20.7862,53.952,-0.0372716,0.0,0.0
207,51.5,31.5213,34.7961,151.255,100.67,100.933,0.00305185,0.181741,20.7889,53.902,-0.0238964,0.0,0.0
210,52.25,32.0492,35.0588,150.465,100.689,101.124,0.00309547,0.179711,20.7927,53.8519,-0.0394889,0.0,0.0
213,53,31.7675,35.4794,147.633,100.702,101.118,0.00315807,0.178001,20.796,53.8419,-0.0377513,0.0,0.0
216,53.75,31.639,35.4911,152.763,100.698,100.97,0.0032037,0.176139,20.7985,53.7819,-0.0246864,0.0,0.0
219,54.5,32.0805,35.2948,151.5,100.73,101.115,0.0032968,0.174563,20.8009,53.7118,-0.0350214,0.0,0.0
222,55.25,31.93,34.8813,155.55,100.749,101.069,0.00340412,0.173041,20.803,53.6517,-0.0290727,0.0,0.0
225,56,31.861,34.912,149.661,100.76,101.059,0.00352465,0.171383,20.8049,53.6017,-0.0271547,0.0,0.0
228,56.75,31.9937,35.115,150.35,100.764,101.153,0.00365609,0.169933,20.8076,53.5917,-0.035307,0.0,0.0
231,57.5,31.9267,35.1202,150.4,100.785,101.125,0.00377557,0.168901,20.8092,53.5316,-0.0308711,0.0,0.0
234,58.25,31.9654,35.0745,153.398,100.801,101.142,0.00393647,0.167075,20.8114,53.4415,-0.0309538,0.0,0.0
237,59,31.8995,35.2404,150.588,100.824,101.375,0.00409284,0.165744,20.813,53.4315,-0.0498791,0.0,0.0
240,59.75,31.8521,35.66,152.493,100.837,101.299,0.00425288,0.164075,20.8146,53.3815,-0.0418488,0.0,0.0
243,60.5,31.556,35.3376,156.124,100.837,101.24,0.00438917,0.162599,20.8166,53.3514,-0.0364943,0.0,0.0
246,61.25,32.1545,35.2693,148.005,100.882,101.142,0.00451797,0.161412,20.8183,53.3114,-0.0235165,0.0,0.0
249,62,32.1535,35.0333,151.552,100.903,101.377,0.00462441,0.160073,20.8199,53.2714,-0.0429371,0.0,0.0
252,62.75,32.0909,34.7918,150.748,100.909,101.507,0.00472759,0.158896,20.8215,53.2013,-0.0541842,0.0,0.0
255,63.5,31.9102,35.1339,152.69,100.932,101.225,0.00482587,0.157515,20.8229,53.1312,-0.0265233,0.0,0.0
258,64.25,32.0222,34.8406,155.44,100.964,101.405,0.00491747,0.156402,20.8239,53.1312,-0.0399781,0.0,0.0
261,65,32.0881,34.9125,151.983,100.983,101.529,0.00500156,0.155561,20.8253,53.1112,-0.0493631,0.0,0.0
264,65.75,32.4615,34.7522,152.085,101.005,101.141,0.00508847,0.154976,20.8272,53.0712,-0.0123573,0.0,0.0
267,66.5,32.4916,34.8047,150.854,101.013,101.402,0.00517237,0.15444,20.829,53.0512,-0.0351902,0.0,0.0
270,67.25,31.9796,35.021,152.438,101.06,101.32,0.00524229,0.153993,20.8303,53.0011,-0.0235241,0.0,0.0
273,68,32.0166,34.7133,151.678,101.083,101.465,0.00533307,0.153572,20.8312,52.9511,-0.0345166,0.0,0.0
276,68.75,32.1293,35.071,151.355,101.12,101.322,0.00542638,0.153004,20.8319,52.9611,-0.0182744,0.0,0.0
279,69.5,32.0915,35.7091,150.449,101.121,101.536,0.00551175,0.15251,20.8324,52.9411,-0.0375178,0.0,0.0
282,70.25,31.9587,34.9655,153.345,101.148,101.456,0.00559457,0.152013,20.8327,52.901,-0.0278332,0.0,0.0
285,71,32.2071,34.8083,152.302,101.166,101.376,0.00566371,0.15153,20.833,52.861,-0.0189533,0.0,0.0
288,71.75,32.2622,34.8168,149.1,101.195,101.449,0.00577978,0.150973,20.8334,52.8209,-0.0229165,0.0,0.0
291,72.5,31.6632,34.7839,150.088,101.195,101.564,0.00589239,0.150415,20.8339,52.7709,-0.0332874,0.0,0.0
294,73.25,31.8243,34.4778,152.641,101.252,101.762,0.00607197,0.149791,20.8348,52.7208,-0.0459575,0.0,0.0
297,74,32.2451,34.7109,152.785,101.267,101.627,0.00625715,0.149076,20.8356,52.6608,-0.032512,0.0,0.0
300,74.75,31.9583,34.926,152.497,101.293,101.686,0.00641527,0.14842,20.8362,52.6408,-0.0355043,0.0,0.0
303,75.5,32.0024,34.4733,153.129,101.298,101.625,0.0065771,0.147708,20.8366,52.6007,-0.0295531,0.0,0.0
306,76.25,32.1736,34.486,154.717,101.329,101.589,0.00672992,0.146887,20.8369,52.5907,-0.0234918,0.0,0.0
309,77,31.8821,34.6152,150.87,101.353,101.731,0.006826,0.146395,20.838,52.5607,-0.0341122,0.0,0.0
312,77.75,31.7741,35.2632,153.374,101.377,101.645,0.0069668,0.145735,20.8392,52.5507,-0.0242133,0.0,0.0
315,78.5,31.9373,34.9052,155.243,101.377,102.03,0.00709716,0.144994,20.8401,52.4906,-0.0588473,0.0,0.0
318,79.25,31.7166,34.7424,153.796,101.404,101.797,0.00721786,0.144303,20.8407,52.4306,-0.0354703,0.0,0.0
321,80,31.8512,34.9489,153.315,101.42,101.523,0.00734287,0.143734,20.8412,52.3805,-0.00927965,0.0,0.0
324,80.75,32.3839,34.2623,151.664,101.439,101.958,0.00745736,0.143254,20.8418,52.3605,-0.0467549,0.0,0.0
327,81.5,31.6699,34.8072,159.105,101.458,101.966,0.0075508,0.142784,20.8426,52.3205,-0.0457259,0.0,0.0
330,82.25,31.8924,34.6814,152.666,101.464,101.789,0.00763839,0.142389,20.8435,52.2904,-0.0293268,0.0,0.0
333,83,32.1628,35.1286,151.266,101.507,101.809,0.0077215,0.141907,20.8445,52.2704,-0.0272303,0.0,0.0
336,83.75,31.644,34.542,154.807,101.514,101.721,0.0078008,0.141484,20.8452,52.2304,-0.0186738,0.0,0.0
339,84.5,31.8955,34.7627,157.985,101.531,101.824,0.00787031,0.141052,20.8458,52.1803,-0.0264149,0.0,0.0
342,85.25,32.017,34.7801,155.482,101.539,101.881,0.00793077,0.140501,20.8461,52.1303,-0.0307807,0.0,0.0
345,86,31.8158,34.6666,153.022,101.569,102.138,0.00798303,0.140043,20.8464,52.0802,-0.0512072,0.0,0.0
348,86.75,31.6242,34.4681,150.604,101.587,102.172,0.00802634,0.139614,20.8471,52.0902,-0.0526014,0.0,0.0
351,87.5,31.943,34.4684,151.067,101.592,101.884,0.00805882,0.139129,20.8478,52.0602,-0.0262676,0.0,0.0
354,88.25,31.877,34.6239,152.103,101.6,102.205,0.00808195,0.138703,20.8489,52.0402,-0.0543671,0.0,0.0
357,89,31.8148,34.732,152.062,101.62,101.966,0.00809491,0.138271,20.8497,51.9701,-0.0311253,0.0,0.0
360,89.75,31.824,34.8614,154.838,101.637,101.958,0.00810406,0.137761,20.8503,51.9801,-0.0288087,0.0,0.0
363,90.5,31.7891,34.2982,153.515,101.658,102.164,0.00811307,0.137335,20.8507,51.9101,-0.0454417,0.0,0.0
366,91.25,31.8779,34.3144,150.689,101.659,102.263,0.00813526,0.136928,20.8511,51.89,-0.0542023,0.0,0.0
369,92,32.1541,34.8642,155.597,101.674,101.922,0.00816699,0.136503,20.8513,51.83,-0.022257,0.0,0.0
372,92.75,32.1912,34.3546,153.306,101.684,101.889,0.00820535,0.135996,20.8515,51.81,-0.0184916,0.0,0.0
375,93.5,31.9615,34.7805,153.328,101.684,101.928,0.00828161,0.135544,20.8516,51.7699,-0.0219494,0.0,0.0
378,94.25,31.9359,34.4627,156.449,101.696,101.773,0.00833721,0.135213,20.8517,51.6698,-0.00695435,0.0,0.0
381,95,31.8474,33.9436,153.142,101.698,101.859,0.00846774,0.134392,20.8521,51.6098,-0.0144302,0.0,0.0
384,95.75,31.4706,34.6146,152.864,101.718,101.979,0.00860127,0.13369,20.8531,51.6098,-0.0234366,0.0,0.0
387,96.5,31.5515,34.1802,159.032,101.72,101.791,0.00876789,0.133002,20.8538,51.6298,-0.00642598,0.0,0.0
390,97.25,31.2689,33.9616,150.373,101.723,101.608,0.00893748,0.13244,20.8543,51.5797,0.0103289,0.0,0.0
393,98,31.6675,34.4494,152.623,101.718,101.579,0.00909291,0.132029,20.8553,51.5397,0.0124862,0.0,0.0
396,98.75,31.7078,33.6506,152.253,101.717,101.814,0.00923611,0.131769,20.856,51.4997,-0.00874513,0.0,0.0
399,99.5,31.6048,33.7993,153.715,101.733,101.91,0.0093523,0.131409,20.8565,51.3595,-0.0159358,0.0,0.0
402,100.25,31.468,33.9372,154.051,101.73,101.972,0.00945168,0.130739,20.8569,51.3896,-0.0217299,0.0,0.0
405,101,31.7959,34.1981,155.121,101.718,101.926,0.00954065,0.130078,20.8572,51.3595,-0.0186907,0.0,0.0
408,101.75,31.6055,33.5861,152.946,101.734,101.9,0.00964354,0.128845,20.8574,51.2794,-0.01493,0.0,0.0
411,102.5,31.5134,33.6765,156.388,101.734,101.859,0.00973476,0.127773,20.8576,51.3195,-0.0111731,0.0,0.0
414,103.25,31.431,33.3276,152.987,101.732,101.69,0.00987087,0.126694,20.8581,51.2594,0.00370224,0.0,0.0
417,104,31.1333,34.1111,152.975,101.723,102.096,0.00999977,0.125532,20.8594,51.2494,-0.0334869,0.0,0.0
420,104.75,31.0816,33.7839,152.881,101.722,102.01,0.010197,0.12432,20.8607,51.2394,-0.0258728,0.0,0.0
423,105.5,31.0927,33.8341,148.727,101.731,101.675,0.0104026,0.123086,20.8621,51.1994,0.00505459,0.0,0.0
426,106.25,30.9067,33.5898,153.937,101.718,102.047,0.010579,0.121826,20.8636,51.1994,-0.0295854,0.0,0.0
429,107,31.492,33.6644,154.886,101.695,101.781,0.0108017,0.120755,20.8646,51.1693,-0.0077363,0.0,0.0
432,107.75,31.2612,33.6571,159.28,101.693,101.757,0.0110222,0.119462,20.8656,51.1393,-0.00581732,0.0,0.0
435,108.5,30.5731,33.5992,153.892,101.698,101.801,0.01123,0.118116,20.8667,51.1093,-0.00927528,0.0,0.0
438,109.25,30.7536,33.7958,153.511,101.694,101.751,0.0114197,0.116727,20.8688,51.0993,-0.00516883,0.0,0.0
441,110,31.286,33.2146,155.422,101.661,101.635,0.0115956,0.115311,20.8704,51.0692,0.00235406,0.0,0.0
444,110.75,30.7179,33.1722,155.316,101.661,101.782,0.0117883,0.114025,20.8715,51.0492,-0.0108708,0.0,0.0
447,111.5,30.8272,32.8623,155.094,101.65,101.431,0.0120082,0.11298,20.8725,51.0092,0.0197113,0.0,0.0
450,112.25,30.693,33.3721,153.882,101.627,101.207,0.0121987,0.112197,20.8737,50.9792,0.037958,0.0,0.0
453,113,30.7882,33.3812,155.123,101.615,101.101,0.012389,0.111673,20.8752,50.9792,0.0465245,0.0,0.0
456,113.75,30.9206,33.3475,153.544,101.6,101.168,0.0125713,0.111371,20.8763,50.9391,0.0390617,0.0,0.0
459,114.5,30.6501,33.0685,152.503,101.593,101.479,0.0127043,0.11113,20.8771,50.859,0.0103311,0.0,0.0
462,115.25,30.8404,33.1589,149.675,101.575,101.371,0.0128221,0.1109,20.8776,50.829,0.0184418,0.0,0.0
465,116,31.0976,32.8064,151.984,101.557,101.368,0.0129093,0.110637,20.8781,50.809,0.0170511,0.0,0.0
468,116.75,30.1802,33.1156,155.682,101.549,101.362,0.0129735,0.110223,20.8784,50.779,0.0168418,0.0,0.0
471,117.5,31.0321,32.664,154.58,101.536,101.593,0.0130297,0.109825,20.8786,50.799,-0.00518085,0.0,0.0
474,118.25,30.5605,32.7997,152.436,101.528,101.064,0.0130707,0.109198,20.8787,50.769,0.0420015,0.0,0.0
477,119,30.7052,32.9185,152.96,101.51,101.159,0.013142,0.108165,20.8791,50.7489,0.0316799,0.0,0.0
480,119.75,30.8993,32.7366,154.633,101.491,101.345,0.0132403,0.106712,20.8798,50.7089,0.0131416,0.0,0.0
483,120.5,30.5996,33.2111,156.902,101.489,101.157,0.0133612,0.105296,20.8802,50.6488,0.0300137,0.0,0.0
486,121.25,30.8101,32.4319,153.666,101.466,101.384,0.0135332,0.103955,20.881,50.6589,0.00740954,0.0,0.0
489,122,31.1112,32.873,154.905,101.449,101.43,0.0137362,0.102711,20.8823,50.5988,0.00171647,0.0,0.0
492,122.75,30.4976,32.8715,154.92,101.427,100.977,0.0139173,0.101596,20.884,50.5588,0.0407241,0.0,0.0
495,123.5,30.494,32.7578,155.195,101.42,101.433,0.014143,0.100695,20.8853,50.5487,-0.00115978,0.0,0.0
498,124.25,30.3591,33.0607,154.81,101.391,101.264,0.0143075,0.0998896,20.8862,50.5087,0.0114545,0.0,0.0
501,125,30.6699,32.5893,154.414,101.373,101.142,0.014529,0.0993026,20.8873,50.4987,0.0208521,0.0,0.0
504,125.75,30.3525,32.5561,156.94,101.344,101.358,0.0147187,0.0987267,20.8883,50.4787,-0.00127227,0.0,0.0
507,126.5,30.7714,32.6063,155.672,101.334,101.139,0.0149431,0.0982773,20.889,50.4787,0.0176396,0.0,0.0
510,127.25,30.4203,32.2571,157.655,101.325,100.983,0.0151708,0.0979604,20.8895,50.3886,0.0309802,0.0,0.0
513,128,30.508,32.2542,153.574,101.303,100.863,0.01541,0.0977694,20.8899,50.3285,0.0398848,0.0,0.0
516,128.75,30.6231,32.028,155.364,101.276,101.172,0.0156073,0.0977147,20.8902,50.3586,0.0094628,0.0,0.0
519,129.5,30.486,32.3604,155.38,101.257,101.335,0.0157609,0.0976008,20.8904,50.2885,-0.00709095,0.0,0.0
522,130.25,30.6754,32.3262,152.614,101.253,101.297,0.0158475,0.0975203,20.891,50.2985,-0.0039998,0.0,0.0
525,131,30.6753,32.6809,154.579,101.237,101.158,0.0159476,0.0973006,20.8916,50.2384,0.0071553,0.0,0.0
528,131.75,30.5919,31.9078,154.996,101.222,101.79,0.0160726,0.0971638,20.8921,50.1984,-0.0512989,0.0,0.0
531,132.5,30.5516,32.0169,155.404,101.194,101.402,0.0162029,0.0971041,20.8924,50.1484,-0.0188127,0.0,0.0
534,133.25,30.1866,32.2412,160.912,101.189,101.324,0.0163147,0.0969998,20.8927,50.1484,-0.0122304,0.0,0.0
537,134,29.7116,32.1339,151.531,101.177,101.188,0.0164307,0.0967653,20.8927,50.1283,-0.00102436,0.0,0.0
540,134.75,29.902,32.3829,154.999,101.148,101.374,0.0165397,0.0963676,20.8926,50.1183,-0.0204187,0.0,0.0
543,135.5,29.9147,32.0559,161.292,101.134,101.059,0.0166296,0.0956765,20.8926,50.0983,0.00677666,0.0,0.0
546,136.25,30.4375,31.8427,157.995,101.126,101.161,0.0167337,0.0950947,20.8926,50.0683,-0.00317009,0.0,0.0
549,137,30.2715,31.6829,151.181,101.116,100.726,0.0168309,0.0945374,20.8925,50.0483,0.0354379,0.0,0.0
552,137.75,30.387,32.1682,155.503,101.099,100.703,0.0168806,0.0943227,20.8925,49.9882,0.0359546,0.0,0.0
555,138.5,30.2679,32.1292,154.981,101.074,100.818,0.0169461,0.0941646,20.8927,49.9782,0.0232727,0.0,0.0
558,139.25,29.9199,31.596,155.237,101.076,100.76,0.0169952,0.0943661,20.8933,49.9682,0.0286291,0.0,0.0
561,140,29.5801,31.7204,156.007,101.058,100.539,0.0170274,0.0945574,20.8937,49.9281,0.0471372,0.0,0.0
564,140.75,30.2722,31.9765,155.819,101.031,100.858,0.0170141,0.0947158,20.894,49.9081,0.0156634,0.0,0.0
567,141.5,29.7892,31.8506,156.534,101.018,100.892,0.0170043,0.0947222,20.8942,49.8781,0.011436,0.0,0.0
570,142.25,29.9647,31.8159,157.251,101.02,100.907,0.0169485,0.0945403,20.8946,49.8781,0.0102678,0.0,0.0
573,143,29.5416,31.6458,157.462,101.003,100.492,0.016887,0.0939644,20.8953,49.8481,0.046443,0.0,0.0
576,143.75,29.7884,31.6807,153.423,100.993,100.752,0.0168443,0.0932964,20.8957,49.828,0.0219078,0.0,0.0
579,144.5,29.4836,31.8114,153.419,100.966,100.64,0.0168524,0.0923849,20.8962,49.768,0.0295838,0.0,0.0
582,145.25,29.5705,31.7245,150.843,100.959,100.525,0.016875,0.0913216,20.8966,49.7179,0.0394227,0.0,0.0
585,146,29.9216,31.4241,154.521,100.949,100.737,0.0169675,0.0903764,20.8974,49.7179,0.0193125,0.0,0.0
588,146.75,29.6684,31.2694,154.755,100.934,100.343,0.0171045,0.0893332,20.8982,49.7179,0.0538292,0.0,0.0
591,147.5,29.7584,31.8833,155.231,100.913,100.394,0.0172679,0.0883208,20.8987,49.6979,0.0472589,0.0,0.0
594,148.25,29.7971,31.4977,155.324,100.922,100.848,0.0174442,0.0874102,20.8994,49.6579,0.00673193,0.0,0.0
597,149,29.776,31.3799,151.001,100.903,100.741,0.0176208,0.0867042,20.9003,49.6379,0.0147727,0.0,0.0
600,149.75,29.8442,31.3755,153.254,100.896,100.686,0.0177899,0.0860275,20.9015,49.6178,0.0191229,0.0,0.0
603,150.5,29.1714,31.444,154.238,100.879,100.701,0.017958,0.085465,20.9025,49.5778,0.016191,0.0,0.0
606,151.25,29.8586,31.0529,153.108,100.872,100.468,0.0181119,0.0847606,20.9031,49.5478,0.0367584,0.0,0.0
609,152,29.4162,31.1325,153.131,100.873,100.392,0.0182375,0.0841309,20.9036,49.5278,0.0438209,0.0,0.0
612,152.75,27.3307,29.1763,159.003,100.862,100.104,0.0183304,0.0836696,20.9039,49.5278,0.0690866,0.0,0.0
615,153.5,27.7138,29.4001,155.983,100.845,100.087,0.0184747,0.082857,20.9042,49.5278,0.069104,0.0,0.0
618,154.25,27.5427,29.4861,152.77,100.843,100.072,0.0186141,0.0821454,20.9044,49.4877,0.0702831,0.0,0.0
621,155,27.3466,29.4308,158.468,100.848,100.271,0.0186992,0.0815021,20.9045,49.4577,0.052572,0.0,0.0
624,155.75,27.8146,29.7678,152.647,100.845,100.03,0.018802,0.0806738,20.9059,49.3476,0.0742582,0.0,0.0
627,156.5,27.6247,28.6959,155.112,100.848,100.204,0.0188575,0.0799244,20.9069,49.3976,0.0587088,0.0,0.0
630,157.25,27.4769,29.2344,159.076,100.836,100.493,0.0188843,0.0792313,20.9077,49.3676,0.0312425,0.0,0.0
633,158,27.4826,28.4705,155.178,100.837,100.261,0.0188805,0.0786564,20.9089,49.3376,0.0524808,0.0,0.0
636,158.75,27.052,29.185,154.205,100.83,100.098,0.0188612,0.0781182,20.91,49.3075,0.0667583,0.0,0.0
639,159.5,27.3521,29.0327,157.661,100.82,100.367,0.0188402,0.0774028,20.9112,49.2875,0.0412373,0.0,0.0
642,160.25,26.9728,28.8395,155.329,100.82,100.365,0.0188308,0.0767434,20.912,49.2775,0.0413732,0.0,0.0
645,161,27.2292,28.9235,156.437,100.821,100.228,0.0188491,0.0759277,20.9127,49.2575,0.0539801,0.0,0.0
648,161.75,27.0161,28.6503,159.636,100.82,100.559,0.0189055,0.0753021,20.9131,49.2175,0.0236823,0.0,0.0
651,162.5,26.7602,28.2887,153.48,100.813,100.361,0.0190697,0.0747932,20.9139,49.1974,0.041147,0.0,0.0
654,163.25,27.0727,28.5555,153.683,100.802,100.59,0.0192457,0.0744013,20.9147,49.1774,0.0193136,0.0,0.0
657,164,26.9452,28.7305,156.186,100.817,100.282,0.0194704,0.074145,20.9153,49.1474,0.0486972,0.0,0.0
660,164.75,26.7288,28.3995,154.623,100.82,100.448,0.019725,0.0739706,20.9157,49.1274,0.0337941,0.0,0.0
663,165.5,26.4888,28.4891,157.157,100.814,100.428,0.0199493,0.0739826,20.916,49.1174,0.0350866,0.0,0.0
666,166.25,26.5918,28.3034,154.849,100.795,100.411,0.0201942,0.0742291,20.9162,49.0673,0.0349941,0.0,0.0
669,167,26.8876,28.5668,154.132,100.806,100.486,0.0203436,0.0745175,20.9162,49.0473,0.0291973,0.0,0.0
672,167.75,26.4928,28.2073,153.08,100.803,100.229,0.0205381,0.0750591,20.9163,49.0173,0.0523288,0.0,0.0
675,168.5,26.3644,28.3636,159.131,100.817,100.812,0.0207171,0.0757479,20.9164,48.9972,0.000467367,0.0,0.0
678,169.25,26.7502,28.1061,155.616,100.812,100.259,0.0208319,0.0763753,20.9164,48.9772,0.0503774,0.0,0.0
681,170,26.6678,28.1887,156.04,100.801,100.446,0.0208976,0.0772103,20.9162,48.9572,0.0323035,0.0,0.0
684,170.75,25.9364,28.4687,155.803,100.818,100.37,0.0209277,0.0781339,20.9157,48.9272,0.0408535,0.0,0.0
687,171.5,26.5134,28.5608,155.268,100.817,100.451,0.0209323,0.0788955,20.9146,48.9172,0.033298,0.0,0.0
690,172.25,26.415,28.1964,157.715,100.813,100.426,0.0209179,0.0794884,20.913,48.8871,0.0352378,0.0,0.0
693,173,26.4072,28.2161,157.156,100.815,100.634,0.0209005,0.0798996,20.9114,48.8571,0.0164407,0.0,0.0
696,173.75,26.3954,28.0832,150.367,100.816,100.606,0.0208849,0.0800986,20.9102,48.8371,0.0191708,0.0,0.0
699,174.5,26.8487,28.3984,156.128,100.822,100.265,0.0208776,0.0800715,20.9094,48.8171,0.0508107,0.0,0.0
702,175.25,27.0218,28.1056,152.735,100.819,100.563,0.0208741,0.0797282,20.9088,48.777,0.0233294,0.0,0.0
705,176,27.2137,28.4168,159.454,100.809,100.299,0.0208971,0.079247,20.9083,48.757,0.046405,0.0,0.0
708,176.75,26.4987,28.9625,157.288,100.837,100.348,0.0209263,0.0787375,20.908,48.737,0.044523,0.0,0.0
711,177.5,26.9972,28.7237,154.404,100.828,100.137,0.0209529,0.0782338,20.9078,48.717,0.0629839,0.0,0.0
714,178.25,26.3174,28.1205,151.453,100.837,100.326,0.0209841,0.0776942,20.908,48.6669,0.0464832,0.0,0.0
717,179,26.5765,28.166,152.901,100.849,100.331,0.0210027,0.0771024,20.9087,48.6669,0.0471948,0.0,0.0
720,179.75,26.5519,28.1657,153.37,100.843,100.158,0.0210057,0.0764197,20.9095,48.6369,0.0624091,0.0,0.0
723,180.5,26.8862,28.2636,159.754,100.841,100.292,0.0209931,0.0758293,20.9108,48.6069,0.0500288,0.0,0.0
726,181.25,26.8769,28.7187,158.071,100.85,100.396,0.020978,0.0752404,20.9117,48.5768,0.0413677,0.0,0.0
729,182,26.295,28.4765,156.382,100.836,100.172,0.0209571,0.0747183,20.9124,48.5368,0.0605076,0.0,0.0
732,182.75,26.2958,28.2291,158.296,100.841,100.439,0.020934,0.0743404,20.9127,48.5168,0.0365974,0.0,0.0
735,183.5,26.9978,28.0755,153.267,100.867,100.387,0.0208907,0.0736318,20.9131,48.4868,0.0437057,0.0,0.0
738,184.25,26.4568,27.9422,159.429,100.849,100.509,0.0208305,0.0729539,20.9141,48.4767,0.0309573,0.0,0.0
741,185,26.8731,27.5196,157.757,100.848,100.507,0.0207219,0.072391,20.9152,48.4367,0.031027,0.0,0.0
744,185.75,26.6993,28.3205,154.087,100.856,100.387,0.0206224,0.0719597,20.9162,48.4367,0.0426613,0.0,0.0
747,186.5,26.4733,28.4005,154.528,100.86,100.348,0.0205151,0.0716159,20.9169,48.4167,0.0466212,0.0,0.0
750,187.25,26.5041,27.879,156.492,100.859,100.633,0.0204115,0.0713529,20.9175,48.3967,0.0206004,0.0,0.0
753,188,26.4797,28.2887,157.081,100.869,100.411,0.0203359,0.0710565,20.9179,48.3767,0.0417145,0.0,0.0
756,188.75,26.7901,27.8953,155.798,100.861,100.713,0.0202887,0.0708405,20.9181,48.3466,0.0134622,0.0,0.0
759,189.5,26.386,27.8957,152.106,100.866,100.546,0.0202543,0.070683,20.9184,48.3266,0.0290809,0.0,0.0
762,190.25,26.2773,28.0124,155.912,100.865,100.145,0.0202553,0.0703801,20.9185,48.2966,0.0655701,0.0,0.0
765,191,26.4767,27.9393,156.125,100.87,100.419,0.0202672,0.070086,20.9186,48.2665,0.0410633,0.0,0.0
768,191.75,26.4127,27.5198,155.389,100.868,100.516,0.0203013,0.0698018,20.9187,48.2465,0.0319944,0.0,0.0
771,192.5,26.7385,27.8558,154.52,100.875,100.442,0.0203331,0.0695287,20.9188,48.2265,0.0393781,0.0,0.0
774,193.25,26.2643,27.441,155.766,100.881,100.385,0.0203556,0.0693714,20.9188,48.2065,0.0452022,0.0,0.0
777,194,26.3054,28.0271,156.86,100.907,100.553,0.0203658,0.0692275,20.9195,48.2065,0.0321783,0.0,0.0
780,194.75,26.54,27.9284,153.277,100.884,100.511,0.0203635,0.06911,20.92,48.1664,0.0339029,0.0,0.0
783,195.5,26.286,27.7443,155.336,100.898,100.33,0.0203617,0.0689219,20.9203,48.1464,0.0516827,0.0,0.0
786,196.25,26.4311,27.4866,153.848,100.889,100.755,0.0203271,0.068741,20.9206,48.1164,0.0121187,0.0,0.0
789,197,26.216,28.1859,154.064,100.899,100.392,0.0202816,0.06863,20.9208,48.0964,0.0461344,0.0,0.0
792,197.75,26.2378,27.6478,155.502,100.894,100.559,0.0202138,0.0685638,20.9209,48.0764,0.030448,0.0,0.0
795,198.5,26.0327,27.5701,155.586,100.906,100.448,0.0201174,0.0685218,20.921,48.0563,0.0416406,0.0,0.0
798,199.25,26.1735,27.8076,156.186,100.919,100.592,0.020047,0.068512,20.9211,48.0363,0.0297253,0.0,0.0
801,200,26.3629,27.3596,155.086,100.901,100.355,0.0199958,0.0684756,20.9211,48.0163,0.0497182,0.0,0.0
804,200.75,26.4249,27.5546,153.699,100.904,100.618,0.019976,0.0684134,20.9216,47.9763,0.02599,0.0,0.0
807,201.5,26.0681,27.5691,159.927,100.911,100.632,0.0199672,0.0683286,20.9222,47.9663,0.0253475,0.0,0.0
810,202.25,26.2537,27.4699,155.575,100.922,100.373,0.0199642,0.0682929,20.9224,47.9562,0.0499777,0.0,0.0
813,203,25.5822,27.3276,154.789,100.928,100.435,0.0199595,0.0682616,20.9228,47.9162,0.0448349,0.0,0.0
816,203.75,26.0199,28.2018,150.617,100.933,100.475,0.0199519,0.0683014,20.923,47.8962,0.0416536,0.0,0.0
819,204.5,26.2037,27.3564,153.003,100.919,100.625,0.0199401,0.0683012,20.9232,47.8461,0.0266988,0.0,0.0
822,205.25,25.9933,27.4868,155.144,100.926,100.648,0.0199218,0.0682808,20.9233,47.8461,0.0252495,0.0,0.0
825,206,25.9053,26.8963,153.802,100.921,100.413,0.0198946,0.0682528,20.9234,47.8161,0.0462344,0.0,0.0
828,206.75,26.2718,27.329,157.101,100.91,100.417,0.019869,0.0681906,20.9235,47.7961,0.0449479,0.0,0.0
831,207.5,25.9639,27.5725,156.169,100.926,100.613,0.0198269,0.0681452,20.9235,47.7861,0.0285398,0.0,0.0
834,208.25,25.7472,27.4423,151.141,100.927,100.524,0.0197893,0.0681539,20.9235,47.7561,0.0366801,0.0,0.0
837,209,25.7409,27.3392,151.794,100.929,100.47,0.0197589,0.0681749,20.9236,47.736,0.0417721,0.0,0.0
840,209.75,25.9701,27.6559,155.137,100.919,100.721,0.019756,0.0681965,20.9236,47.706,0.0180004,0.0,0.0
843,210.5,25.2618,27.6799,156.498,100.929,100.6,0.0197794,0.0683001,20.9236,47.686,0.0299332,0.0,0.0
846,211.25,25.9873,27.1629,152.27,100.94,100.675,0.0198262,0.0684362,20.9236,47.666,0.0240733,0.0,0.0
849,212,26.0771,28.0336,152.403,100.938,100.691,0.0199053,0.068575,20.9236,47.6359,0.0225135,0.0,0.0
852,212.75,26.2513,27.4902,154.423,100.919,100.618,0.019963,0.0686453,20.9236,47.6059,0.0273695,0.0,0.0
855,213.5,26.0234,27.8242,155.356,100.922,100.584,0.0200023,0.0686439,20.9238,47.5959,0.0307484,0.0,0.0
858,214.25,26.264,28.1339,157.164,100.936,100.782,0.0200146,0.0686846,20.9241,47.5759,0.0139289,0.0,0.0
861,215,26.4576,27.7069,154.306,100.935,100.719,0.0199976,0.0686703,20.9243,47.5559,0.019598,0.0,0.0
864,215.75,25.6294,27.611,155.979,100.948,100.684,0.01995,0.0686412,20.9245,47.5258,0.023997,0.0,0.0
867,216.5,26.1266,27.452,156.791,100.944,100.443,0.0199152,0.0686639,20.9246,47.4958,0.0455564,0.0,0.0
870,217.25,26.3355,27.0883,154.283,100.966,100.787,0.0199114,0.0686992,20.9247,47.4758,0.0161998,0.0,0.0
873,218,25.7481,27.7763,156.856,100.966,100.623,0.0199333,0.0687305,20.9248,47.4458,0.0311238,0.0,0.0
876,218.75,26.3171,27.7693,152.379,100.956,100.713,0.0199891,0.068759,20.9248,47.4257,0.022081,0.0,0.0
879,219.5,25.8132,27.1737,154.367,100.96,100.731,0.0200656,0.0687665,20.9248,47.4157,0.0207791,0.0,0.0
882,220.25,26.2322,27.6104,158.5,100.972,100.794,0.0201387,0.0687281,20.9246,47.3657,0.0162085,0.0,0.0
885,221,26.1472,27.4906,154.028,100.968,100.761,0.0201958,0.0687106,20.9245,47.3457,0.0187818,0.0,0.0
888,221.75,25.7428,27.4454,154.724,100.975,100.734,0.0202021,0.0686873,20.9244,47.3256,0.0218882,0.0,0.0
891,222.5,26.3454,27.2224,156.815,100.974,100.905,0.0201764,0.0686307,20.9243,47.2956,0.00628125,0.0,0.0
894,223.25,25.9867,28.1306,154.731,100.985,100.812,0.0201448,0.0685602,20.9242,47.2756,0.0157278,0.0,0.0
897,224,25.5742,27.4571,152.49,100.993,100.844,0.0200833,0.0684962,20.9242,47.2656,0.0135821,0.0,0.0
900,224.75,26.1118,27.3341,156.07,101.013,100.677,0.0200097,0.0684497,20.9242,47.2355,0.0304839,0.0,0.0
903,225.5,25.8144,27.5153,157.519,101.006,101.109,0.0199464,0.0683864,20.9242,47.2255,-0.00935289,0.0,0.0
906,226.25,26.0962,27.3866,159.128,101.014,100.881,0.0198929,0.0683278,20.9241,47.1955,0.0120947,0.0,0.0
909,227,26.1808,27.5331,156.833,101.03,100.71,0.0198525,0.0682851,20.9241,47.1655,0.0291081,0.0,0.0
912,227.75,25.922,27.3004,157.232,101.03,100.811,0.0198283,0.0682331,20.9241,47.1555,0.0199271,0.0,0.0
915,228.5,26.0852,27.3318,154.499,101.037,100.767,0.0198205,0.0681881,20.9241,47.1355,0.0245764,0.0,0.0
918,229.25,26.0487,27.7857,153.728,101.045,100.845,0.0198314,0.0681434,20.9242,47.1254,0.018105,0.0,0.0
921,230,26.3323,27.6119,158.926,101.055,100.834,0.0198464,0.0681109,20.9244,47.0854,0.0199925,0.0,0.0
924,230.75,26.1302,27.4902,152.4,101.053,100.799,0.0198972,0.0680871,20.9246,47.0854,0.0230908,0.0,0.0
927,231.5,25.903,27.5342,155.885,101.06,101.035,0.0199621,0.0680991,20.9247,47.0554,0.00220122,0.0,0.0
930,232.25,26.244,27.4162,146.458,101.068,100.82,0.0200279,0.0681588,20.9247,47.0153,0.0224884,0.0,0.0
933,233,26.5053,27.3987,156.923,101.072,100.87,0.0200883,0.0682683,20.9248,47.0053,0.0183121,0.0,0.0
936,233.75,25.8698,26.9424,154.821,101.079,100.919,0.0201405,0.068369,20.9248,46.9853,0.0145035,0.0,0.0
939,234.5,26.0329,27.4473,156.97,101.062,100.729,0.0201835,0.068427,20.9249,46.9553,0.0302042,0.0,0.0
942,235.25,25.6973,27.3515,151.307,101.079,100.757,0.020205,0.0684429,20.9249,46.9353,0.029206,0.0,0.0
945,236,25.9746,27.3757,157.328,101.086,100.886,0.0202207,0.0684314,20.9249,46.9052,0.0180876,0.0,0.0
948,236.75,25.9993,27.5667,154.837,101.104,100.919,0.0202225,0.0683834,20.9249,46.8752,0.01682,0.0,0.0
951,237.5,25.7465,27.5535,155.483,101.096,100.993,0.0202198,0.0683485,20.9249,46.8452,0.00935808,0.0,0.0
954,238.25,26.3057,27.0085,153.831,101.11,100.956,0.0202232,0.068323,20.9249,46.8051,0.0139637,0.0,0.0
957,239,25.7249,27.6666,154.982,101.129,101.1,0.0202281,0.0683484,20.9249,46.8051,0.00267721,0.0,0.0
960,239.75,26.18,27.4037,155.39,101.136,100.874,0.0202336,0.0683702,20.925,46.7951,0.0237149,0.0,0.0
963,240.5,25.9545,26.8969,154.046,101.144,101.103,0.0202225,0.0683597,20.925,46.7551,0.0037852,0.0,0.0
966,241.25,25.4202,27.2807,154.704,101.156,101.044,0.020208,0.0683228,20.925,46.7451,0.010102,0.0,0.0
969,242,25.8596,27.5741,150.889,101.169,101.002,0.0201621,0.0682757,20.925,46.7251,0.0151347,0.0,0.0
972,242.75,26.1133,27.6927,153.711,101.184,101.057,0.0201135,0.0682281,20.925,46.705,0.0114982,0.0,0.0
975,243.5,26.1747,27.2834,159.197,101.193,101.138,0.0200709,0.0682144,20.925,46.685,0.00501421,0.0,0.0
978,244.25,25.5638,27.4559,155.274,101.201,101.107,0.0200387,0.0682044,20.925,46.665,0.00847768,0.0,0.0
981,245,25.6673,27.4729,156.164,101.217,101.116,0.020026,0.0681344,20.925,46.645,0.00907226,0.0,0.0
984,245.75,25.7605,27.1315,159.956,101.23,101.19,0.0200353,0.0680988,20.9243,46.6049,0.00367823,0.0,0.0
987,246.5,25.7969,27.8202,158.144,101.237,101.169,0.0200578,0.0680992,20.9239,46.5849,0.00615575,0.0,0.0
990,247.25,25.8363,27.13,154.908,101.247,101.252,0.0200879,0.068183,20.9235,46.5749,-0.000463022,0.0,0.0
993,248,25.2595,27.5348,155.75,101.271,101.14,0.0201157,0.0682002,20.9233,46.5449,0.0118177,0.0,0.0
996,248.75,25.9549,26.9321,151.528,101.303,100.991,0.0201576,0.0681478,20.9235,46.5249,0.0282437,0.0,0.0
999,249.5,25.7184,27.0016,153.383,101.31,101.165,0.0201946,0.0680305,20.9239,46.5048,0.0131045,0.0,0.0
1002,250.25,25.6548,27.0138,156.232,101.297,101.218,0.0202328,0.0680182,20.9242,46.4848,0.00712584,0.0,0.0
1005,251,25.537,27.5835,152.969,101.335,101.325,0.0202547,0.0680405,20.9244,46.4548,0.000832071,0.0,0.0
1008,251.75,25.3137,27.2502,155.551,101.358,101.1,0.0202706,0.068042,20.9246,46.4548,0.0233457,0.0,0.0
1011,252.5,25.8024,27.3444,155.694,101.365,101.198,0.0202232,0.0680369,20.9247,46.4348,0.0151096,0.0,0.0
1014,253.25,25.7091,27.4329,153.549,101.385,101.159,0.0201453,0.0679497,20.9247,46.4048,0.0204348,0.0,0.0
1017,254,25.3702,27.4821,154.531,101.385,101.302,0.0200576,0.0679154,20.9248,46.3747,0.00747064,0.0,0.0
1020,254.75,26.2606,27.6416,154.831,101.423,101.347,0.01998,0.0679028,20.9248,46.3547,0.00684759,0.0,0.0
1023,255.5,25.5102,27.2586,154.125,101.436,101.568,0.0199234,0.0678728,20.9249,46.3447,-0.0119522,0.0,0.0
1026,256.25,25.9028,27.5386,155.099,101.443,101.118,0.0198822,0.0677777,20.9249,46.3247,0.0293639,0.0,0.0
1029,257,25.8089,27.1224,161.771,101.452,101.211,0.0198599,0.0676617,20.9249,46.3046,0.0218021,0.0,0.0
1032,257.75,25.7867,27.427,154.163,101.48,101.305,0.0198506,0.0675509,20.9249,46.2846,0.0157387,0.0,0.0
1035,258.5,26.1133,27.6096,153.928,101.489,101.382,0.0198467,0.0674993,20.9249,46.2546,0.00967443,0.0,0.0
1038,259.25,26.139,26.9025,161.918,101.506,101.106,0.0198439,0.0674742,20.9249,46.2446,0.0360851,0.0,0.0
1041,260,25.6286,27.6068,156.183,101.514,101.476,0.0198555,0.0674559,20.9249,46.2346,0.00348284,0.0,0.0
1044,260.75,25.8364,27.1271,158.244,101.527,101.462,0.0198699,0.067545,20.9248,46.1845,0.00584582,0.0,0.0
1047,261.5,25.6657,27.0201,153.209,101.538,101.368,0.0198743,0.0676331,20.9247,46.1745,0.0153386,0.0,0.0
1050,262.25,25.8571,27.5822,155.424,101.558,101.317,0.019871,0.0677369,20.9243,46.1645,0.0217052,0.0,0.0
1053,263,26.0672,27.3546,156.433,101.557,101.41,0.0198575,0.0677686,20.9241,46.1445,0.0131863,0.0,0.0
1056,263.75,26.1781,27.264,154.989,101.566,101.507,0.0198438,0.067773,20.9239,46.1145,0.00531762,0.0,0.0
1059,264.5,25.6706,27.5262,155.021,101.586,101.425,0.0198324,0.0677762,20.9238,46.1045,0.0145525,0.0,0.0
1062,265.25,26.0748,27.2956,156.732,101.59,101.248,0.0198271,0.0677159,20.9237,46.0844,0.0308953,0.0,0.0
1065,266,25.693,27.3911,153.19,101.595,101.43,0.0198294,0.0676873,20.9236,46.0644,0.0148741,0.0,0.0
1068,266.75,26.0792,27.5225,157.914,101.613,101.495,0.0198347,0.0676929,20.9236,46.0444,0.0106649,0.0,0.0
1071,267.5,26.0528,27.5249,154.291,101.619,101.539,0.0198447,0.0676237,20.9235,46.0244,0.00722514,0.0,0.0
1074,268.25,26.3398,27.6071,154.328,101.628,101.568,0.0198442,0.067542,20.9235,45.9944,0.00543876,0.0,0.0
1077,269,25.8864,27.221,153.76,101.622,101.529,0.0198281,0.0674742,20.9235,45.9843,0.00839149,0.0,0.0
1080,269.75,25.4802,27.4828,152.354,101.633,101.549,0.0198141,0.06746,20.9235,45.9643,0.00755793,0.0,0.0
1083,270.5,26.2188,27.7133,156.638,101.648,101.814,0.0197906,0.0674875,20.9235,45.9443,-0.0149656,0.0,0.0
1086,271.25,26.2415,27.627,154.806,101.653,101.768,0.0197763,0.0675263,20.9235,45.9243,-0.0103941,0.0,0.0
1089,272,25.4602,27.1648,152.404,101.659,101.761,0.0197671,0.0675357,20.9234,45.8943,-0.00912989,0.0,0.0