File: 01_Data/Cellulose_Insulation/Cone/Cellulose_Insulation_HRRPUA_50.csv
Time after Ignition,Cellulose_Insulation_R1,Cellulose_Insulation_R2,Cellulose_Insulation_R3,Mean,Std. Dev.
0.0,1.0,0.0,1.8,0.9,0.9
0.25,0.9,0.0,1.8,0.9,0.9
0.5,1.0,0.1,1.8,0.9,0.8
0.75,1.0,0.1,1.7,0.9,0.8
1.0,1.0,0.1,1.7,0.9,0.8
1.25,1.0,0.1,1.7,0.9,0.8
1.5,1.0,0.2,1.7,0.9,0.8
1.75,1.0,0.2,1.7,0.9,0.8
2.0,1.0,0.2,1.7,1.0,0.8
2.25,0.8,0.3,1.8,1.0,0.8
2.5,0.7,0.4,2.0,1.0,0.8
2.75,0.5,0.5,2.0,1.0,0.9
3.0,0.4,0.6,2.1,1.1,0.9
3.25,0.3,0.7,2.2,1.1,1.0
3.5,0.2,0.8,2.2,1.1,1.0
3.75,0.2,0.8,2.3,1.1,1.1
4.0,0.1,0.9,2.4,1.1,1.2
4.25,0.0,0.9,2.5,1.1,1.2
4.5,-0.0,1.0,2.4,1.1,1.2
4.75,-0.1,1.0,2.6,1.2,1.3
5.0,-0.0,1.0,2.7,1.3,1.4
5.25,0.0,1.1,2.9,1.4,1.5
5.5,0.1,1.1,2.9,1.4,1.4
5.75,0.1,1.1,2.9,1.4,1.4
6.0,0.2,1.2,2.8,1.4,1.3
6.25,0.2,1.2,2.7,1.4,1.3
6.5,0.2,1.2,2.7,1.4,1.2
6.75,0.3,1.3,2.6,1.4,1.2
7.0,0.3,1.3,2.6,1.4,1.1
7.25,0.3,1.3,2.5,1.4,1.1
7.5,0.3,1.3,2.4,1.4,1.0
7.75,0.4,1.3,2.4,1.4,1.0
8.0,0.5,1.3,2.3,1.4,0.9
8.25,0.6,1.3,2.3,1.4,0.8
8.5,0.7,1.3,2.2,1.4,0.7
8.75,0.8,1.3,2.1,1.4,0.7
9.0,1.3,1.3,2.1,1.6,0.4
9.25,1.8,1.5,2.1,1.8,0.3
9.5,2.2,1.7,2.0,2.0,0.3
9.75,2.6,1.7,2.0,2.1,0.5
10.0,3.0,1.9,2.0,2.3,0.6
10.25,6.6,2.0,1.9,3.5,2.7
10.5,9.7,2.1,3.1,5.0,4.1
10.75,12.6,3.2,4.0,6.6,5.2
11.0,15.2,4.1,4.9,8.1,6.2
11.25,17.5,5.0,5.6,9.4,7.0
11.5,19.3,5.9,6.4,10.5,7.6
11.75,26.5,11.7,11.2,16.5,8.7
12.0,33.3,16.7,15.8,21.9,9.8
12.25,39.6,21.8,19.4,27.0,11.0
12.5,44.9,26.3,22.7,31.3,11.9
12.75,54.2,29.7,32.9,38.9,13.3
13.0,62.5,39.4,42.1,48.0,12.6
13.25,71.5,49.3,50.2,57.0,12.6
13.5,76.8,57.5,57.4,63.9,11.2
13.75,86.6,64.6,67.7,73.0,11.9
14.0,96.6,78.2,77.0,83.9,11.0
14.25,104.4,88.1,84.4,92.3,10.6
14.5,111.2,97.2,94.3,100.9,9.0
14.75,117.9,108.0,103.2,109.7,7.5
15.0,123.5,118.6,112.1,118.1,5.7
15.25,131.8,125.8,111.2,123.0,10.6
15.5,134.5,132.9,119.7,129.0,8.1
15.75,138.8,139.6,125.5,134.6,7.9
16.0,142.9,147.1,130.2,140.1,8.8
16.25,144.7,154.5,136.1,145.1,9.2
16.5,152.9,158.1,143.7,151.6,7.3
16.75,155.1,163.9,149.3,156.1,7.4
17.0,158.7,163.9,150.9,157.8,6.6
17.25,159.5,172.0,159.2,163.6,7.3
17.5,159.9,172.1,161.7,164.6,6.6
17.75,161.5,178.2,161.2,167.0,9.7
18.0,166.1,177.5,164.8,169.5,7.0
18.25,168.4,183.4,168.3,173.3,8.7
18.5,166.6,183.0,172.9,174.2,8.3
18.75,168.5,183.2,176.3,176.0,7.3
19.0,173.9,190.6,174.8,179.8,9.4
19.25,173.3,188.3,179.5,180.4,7.6
19.5,174.8,192.8,178.6,182.0,9.5
19.75,173.7,191.2,181.5,182.2,8.8
20.0,176.8,190.5,179.4,182.2,7.3
20.25,176.8,191.4,182.7,183.6,7.3
20.5,173.1,191.4,184.0,182.8,9.2
20.75,173.6,192.1,181.9,182.5,9.2
21.0,174.3,194.3,183.4,184.0,10.0
21.25,177.3,190.9,182.6,183.6,6.9
21.5,176.5,195.7,184.2,185.5,9.7
21.75,170.9,195.5,182.8,183.1,12.3
22.0,173.2,190.7,179.3,181.1,8.9
22.25,171.6,189.6,180.8,180.7,9.0
22.5,171.6,191.3,179.3,180.8,9.9
22.75,171.5,189.9,180.7,180.7,9.2
23.0,173.5,189.6,181.4,181.5,8.0
23.25,171.6,185.9,178.1,178.5,7.2
23.5,171.0,183.8,178.7,177.8,6.5
23.75,170.4,184.8,176.7,177.3,7.2
24.0,169.0,184.1,182.1,178.4,8.2
24.25,170.1,185.8,175.6,177.2,8.0
24.5,171.0,181.1,177.0,176.4,5.1
24.75,168.4,181.5,172.6,174.2,6.7
25.0,167.6,178.3,171.8,172.6,5.4
25.25,166.9,179.5,169.3,171.9,6.7
25.5,164.4,177.9,171.1,171.2,6.7
25.75,166.8,178.1,168.5,171.1,6.1
26.0,165.1,175.3,168.6,169.7,5.2
26.25,164.0,172.0,165.1,167.0,4.3
26.5,164.9,171.1,163.0,166.3,4.2
26.75,162.5,173.7,160.6,165.6,7.0
27.0,161.0,172.4,164.4,165.9,5.9
27.25,158.2,169.0,158.8,162.0,6.1
27.5,158.7,166.9,159.5,161.7,4.6
27.75,159.9,166.7,158.3,161.7,4.5
28.0,156.9,165.1,155.8,159.3,5.1
28.25,157.3,163.6,156.9,159.3,3.8
28.5,155.8,162.9,155.8,158.2,4.1
28.75,156.7,161.4,152.9,157.0,4.3
29.0,154.5,161.0,153.3,156.3,4.1
29.25,153.2,159.1,152.8,155.0,3.5
29.5,151.5,155.8,150.4,152.6,2.8
29.75,149.9,155.5,149.6,151.6,3.3
30.0,148.4,155.0,149.2,150.9,3.6
30.25,149.8,154.4,145.6,150.0,4.4
30.5,146.7,153.5,146.7,149.0,3.9
30.75,145.6,150.6,146.7,147.6,2.6
31.0,145.3,148.2,144.7,146.1,1.9
31.25,143.9,146.6,141.5,144.0,2.6
31.5,142.6,148.0,142.4,144.3,3.2
31.75,143.0,144.7,141.5,143.1,1.6
32.0,139.3,145.9,140.2,141.8,3.6
32.25,140.4,143.3,141.6,141.8,1.5
32.5,138.3,142.6,141.4,140.8,2.2
32.75,139.5,143.4,139.7,140.9,2.2
33.0,136.0,142.0,136.2,138.0,3.4
33.25,138.4,141.4,135.3,138.4,3.0
33.5,139.7,138.9,135.8,138.1,2.0
33.75,136.9,137.2,135.6,136.6,0.9
34.0,135.8,135.6,135.6,135.7,0.1
34.25,136.0,135.5,132.8,134.8,1.8
34.5,134.0,137.9,133.2,135.0,2.5
34.75,133.8,135.9,130.6,133.4,2.7
35.0,132.6,135.6,129.5,132.6,3.1
35.25,131.2,134.4,131.0,132.2,1.9
35.5,131.1,131.5,128.9,130.5,1.4
35.75,130.4,128.7,128.7,129.2,1.0
36.0,130.1,125.2,127.9,127.8,2.4
36.25,127.7,127.2,126.8,127.2,0.5
36.5,125.9,126.3,126.5,126.2,0.3
36.75,127.8,124.5,128.0,126.8,2.0
37.0,126.4,124.0,125.6,125.3,1.2
37.25,125.5,123.2,125.1,124.6,1.2
37.5,123.1,122.0,123.3,122.8,0.7
37.75,124.4,121.2,121.8,122.5,1.7
38.0,122.6,120.1,121.7,121.4,1.3
38.25,124.3,119.4,119.4,121.0,2.8
38.5,121.9,119.9,120.6,120.8,1.0
38.75,122.6,118.9,120.2,120.6,1.9
39.0,122.8,117.9,120.2,120.3,2.4
39.25,121.1,115.8,119.9,118.9,2.8
39.5,119.5,117.4,116.9,117.9,1.4
39.75,119.6,113.7,116.9,116.7,2.9
40.0,118.7,115.5,117.6,117.3,1.6
40.25,119.2,114.2,115.2,116.2,2.6
40.5,117.2,114.2,113.4,114.9,2.0
40.75,117.6,113.2,113.5,114.8,2.4
41.0,116.1,113.6,113.6,114.4,1.5
41.25,116.4,112.9,114.4,114.6,1.7
41.5,115.2,111.0,113.3,113.1,2.1
41.75,115.6,110.8,111.6,112.6,2.6
42.0,115.8,109.7,115.1,113.5,3.3
42.25,114.3,109.6,113.2,112.4,2.4
42.5,113.6,110.8,112.9,112.4,1.4
42.75,113.6,107.8,111.2,110.9,2.9
43.0,111.1,107.9,113.0,110.7,2.6
43.25,112.6,108.7,110.7,110.7,2.0
43.5,112.1,109.8,110.8,110.9,1.1
43.75,111.7,107.3,111.1,110.1,2.4
44.0,111.9,107.5,110.3,109.9,2.2
44.25,110.7,104.4,109.7,108.3,3.4
44.5,108.0,106.4,107.7,107.3,0.9
44.75,110.1,105.5,108.4,108.0,2.3
45.0,108.1,106.4,109.4,108.0,1.5
45.25,108.0,105.0,107.9,107.0,1.7
45.5,107.4,104.6,106.3,106.1,1.4
45.75,109.7,102.1,107.3,106.4,3.9
46.0,109.1,103.8,106.2,106.3,2.7
46.25,107.1,102.1,106.1,105.1,2.7
46.5,106.6,101.9,105.6,104.7,2.5
46.75,107.7,103.1,104.4,105.1,2.4
47.0,106.2,101.3,103.5,103.7,2.5
47.25,104.7,101.9,104.4,103.7,1.6
47.5,104.1,99.9,104.3,102.8,2.5
47.75,105.3,99.5,102.8,102.5,2.9
48.0,102.5,98.3,102.9,101.2,2.5
48.25,103.4,99.3,102.8,101.8,2.2
48.5,103.7,98.4,100.8,101.0,2.7
48.75,101.2,97.9,101.2,100.1,1.9
49.0,103.4,96.0,101.9,100.4,3.9
49.25,101.3,96.5,101.1,99.6,2.7
49.5,100.1,97.0,99.1,98.7,1.6
49.75,99.3,95.9,99.3,98.2,2.0
50.0,99.7,97.0,98.4,98.4,1.4
50.25,98.7,95.5,96.9,97.0,1.6
50.5,96.9,94.4,97.7,96.4,1.7
50.75,96.3,95.2,98.2,96.6,1.5
51.0,97.7,93.6,97.4,96.2,2.3
51.25,96.5,93.2,97.0,95.6,2.1
51.5,96.1,95.8,98.1,96.7,1.3
51.75,94.4,91.9,99.5,95.3,3.8
52.0,94.6,92.3,97.2,94.7,2.4
52.25,94.9,93.2,97.1,95.1,2.0
52.5,94.0,93.5,96.5,94.7,1.6
52.75,94.6,92.1,96.4,94.4,2.2
53.0,94.9,91.4,96.2,94.2,2.5
53.25,91.1,91.2,96.0,92.8,2.8
53.5,92.8,92.3,95.3,93.5,1.6
53.75,91.3,90.4,95.0,92.2,2.4
54.0,91.4,88.6,96.6,92.2,4.1
54.25,90.5,90.2,93.5,91.4,1.8
54.5,89.8,89.4,94.4,91.2,2.8
54.75,89.8,87.6,94.4,90.6,3.5
55.0,89.8,89.7,93.2,90.9,2.0
55.25,88.1,88.0,92.6,89.5,2.6
55.5,88.3,87.9,93.5,89.9,3.1
55.75,89.7,87.7,92.4,89.9,2.4
56.0,87.0,88.6,91.2,88.9,2.1
56.25,88.4,87.5,89.9,88.6,1.2
56.5,87.8,88.1,90.9,88.9,1.7
56.75,87.1,87.3,91.3,88.5,2.4
57.0,87.3,85.1,90.5,87.6,2.7
57.25,86.0,86.3,89.3,87.2,1.8
57.5,85.5,87.1,89.1,87.3,1.8
57.75,84.6,85.9,89.7,86.7,2.6
58.0,85.3,86.4,88.5,86.7,1.6
58.25,84.9,84.6,87.9,85.8,1.8
58.5,85.6,86.5,87.5,86.5,0.9
58.75,84.4,85.7,87.8,86.0,1.7
59.0,84.8,86.3,88.2,86.4,1.7
59.25,83.6,85.5,88.4,85.8,2.4
59.5,84.0,85.2,86.6,85.2,1.3
59.75,84.0,83.9,84.8,84.2,0.5
60.0,83.1,84.1,85.6,84.3,1.2
60.25,82.8,84.7,87.8,85.1,2.5
60.5,83.2,84.5,85.6,84.5,1.2
60.75,83.2,84.1,85.3,84.2,1.0
61.0,83.1,85.2,84.8,84.4,1.1
61.25,83.2,82.4,85.3,83.7,1.5
61.5,82.7,82.8,84.6,83.4,1.1
61.75,81.6,82.4,83.8,82.6,1.1
62.0,81.8,82.1,84.4,82.8,1.4
62.25,82.5,81.9,84.5,83.0,1.4
62.5,81.5,80.8,83.2,81.8,1.3
62.75,80.2,81.3,83.3,81.6,1.6
63.0,81.6,81.8,82.5,82.0,0.4
63.25,82.1,80.9,83.6,82.2,1.3
63.5,80.2,81.1,81.7,81.0,0.7
63.75,80.2,82.1,83.6,82.0,1.7
64.0,80.2,80.1,82.0,80.8,1.1
64.25,80.8,80.9,81.7,81.1,0.5
64.5,78.4,80.4,82.0,80.3,1.8
64.75,78.6,81.5,81.5,80.5,1.7
65.0,78.9,81.7,82.7,81.1,2.0
65.25,79.3,79.6,81.6,80.2,1.3
65.5,78.3,80.4,82.0,80.2,1.8
65.75,78.7,81.0,81.3,80.3,1.4
66.0,78.7,79.7,81.1,79.8,1.2
66.25,77.5,79.9,82.0,79.8,2.2
66.5,78.2,81.0,79.9,79.7,1.4
66.75,77.6,78.9,79.8,78.8,1.1
67.0,79.1,80.3,79.8,79.7,0.6
67.25,78.3,80.4,78.5,79.1,1.2
67.5,77.1,80.1,79.4,78.8,1.5
67.75,76.8,80.2,78.6,78.5,1.7
68.0,77.6,80.5,78.9,79.0,1.5
68.25,77.7,80.5,79.1,79.1,1.4
68.5,77.6,80.1,78.1,78.6,1.3
68.75,76.6,79.5,78.5,78.2,1.5
69.0,77.0,80.4,78.4,78.6,1.7
69.25,77.5,81.8,78.7,79.3,2.2
69.5,77.3,80.0,78.6,78.6,1.3
69.75,77.5,79.7,78.6,78.6,1.1
70.0,76.2,79.8,78.3,78.1,1.8
70.25,77.0,79.6,78.3,78.3,1.3
70.5,76.5,79.9,77.6,78.0,1.7
70.75,75.9,79.5,78.4,77.9,1.8
71.0,75.9,80.2,77.2,77.8,2.2
71.25,76.1,78.9,78.0,77.7,1.4
71.5,75.7,79.4,76.7,77.3,1.9
71.75,75.3,78.5,77.4,77.1,1.6
72.0,76.1,77.8,77.6,77.1,1.0
72.25,74.3,78.7,77.5,76.9,2.3
72.5,74.4,77.2,77.3,76.3,1.6
72.75,73.2,78.4,77.0,76.2,2.7
73.0,73.6,78.2,77.2,76.3,2.4
73.25,73.6,77.1,77.4,76.0,2.1
73.5,73.6,78.0,75.9,75.8,2.2
73.75,74.3,76.5,76.8,75.8,1.4
74.0,74.2,76.6,76.9,75.9,1.4
74.25,74.2,76.7,75.5,75.5,1.2
74.5,74.0,76.8,75.9,75.6,1.4
74.75,73.9,77.0,75.4,75.5,1.5
75.0,73.2,76.2,76.0,75.1,1.7
75.25,73.5,75.6,76.7,75.3,1.6
75.5,73.1,75.8,76.6,75.2,1.8
75.75,73.3,75.0,74.7,74.3,0.9
76.0,73.3,75.9,74.9,74.7,1.3
76.25,74.5,76.6,75.0,75.4,1.1
76.5,73.7,75.8,74.8,74.8,1.0
76.75,73.4,76.5,75.6,75.2,1.6
77.0,72.5,75.6,74.7,74.3,1.6
77.25,73.2,75.5,74.2,74.3,1.2
77.5,73.7,75.5,75.2,74.8,0.9
77.75,73.1,75.1,74.3,74.2,1.0
78.0,74.1,74.4,74.9,74.5,0.4
78.25,73.7,74.3,74.7,74.2,0.5
78.5,72.9,74.0,73.9,73.6,0.6
78.75,73.5,74.0,74.8,74.1,0.6
79.0,72.4,73.6,72.9,73.0,0.6
79.25,71.9,73.3,72.1,72.4,0.7
79.5,72.7,73.9,73.0,73.2,0.6
79.75,72.0,74.1,74.3,73.5,1.3
80.0,72.0,72.3,72.4,72.2,0.2
80.25,72.4,73.6,72.2,72.8,0.8
80.5,70.9,73.2,72.6,72.2,1.2
80.75,72.3,72.6,72.2,72.3,0.2
81.0,72.1,72.3,73.4,72.6,0.7
81.25,72.6,71.6,72.6,72.3,0.6
81.5,71.1,71.8,72.3,71.7,0.6
81.75,72.4,72.2,71.9,72.2,0.2
82.0,72.1,72.4,71.7,72.0,0.3
82.25,71.3,71.9,71.5,71.6,0.3
82.5,71.7,71.6,71.8,71.7,0.1
82.75,72.0,70.8,72.7,71.8,0.9
83.0,71.9,71.2,72.2,71.8,0.5
83.25,71.3,71.2,71.6,71.4,0.2
83.5,71.3,71.4,72.5,71.7,0.7
83.75,71.1,71.0,70.9,71.0,0.1
84.0,72.4,71.7,71.6,71.9,0.4
84.25,71.5,71.4,72.4,71.8,0.6
84.5,71.4,71.4,71.8,71.5,0.2
84.75,70.2,71.1,71.6,71.0,0.7
85.0,70.2,70.0,70.9,70.4,0.5
85.25,71.1,70.2,71.5,70.9,0.7
85.5,70.4,70.2,72.0,70.9,1.0
85.75,70.4,70.6,72.6,71.2,1.2
86.0,69.7,71.6,70.4,70.6,1.0
86.25,70.7,71.0,71.1,70.9,0.2
86.5,69.0,70.5,71.0,70.2,1.0
86.75,69.8,70.9,71.0,70.5,0.7
87.0,70.4,70.8,71.3,70.8,0.5
87.25,68.8,70.6,70.9,70.1,1.2
87.5,69.5,70.6,70.0,70.0,0.6
87.75,68.9,71.0,71.0,70.3,1.2
88.0,68.5,71.0,71.2,70.2,1.5
88.25,68.9,70.8,70.9,70.2,1.1
88.5,69.1,69.6,70.7,69.8,0.8
88.75,67.7,69.6,70.8,69.3,1.6
89.0,67.8,70.0,71.5,69.8,1.9
89.25,68.4,69.2,71.0,69.5,1.3
89.5,67.4,69.9,71.3,69.5,2.0
89.75,67.5,69.6,71.2,69.4,1.8
90.0,67.7,69.3,69.8,69.0,1.1
90.25,67.4,71.1,70.4,69.6,2.0
90.5,67.6,69.6,70.5,69.2,1.5
90.75,67.4,69.9,69.8,69.0,1.4
91.0,67.5,69.5,68.4,68.5,1.0
91.25,66.6,70.7,69.8,69.0,2.2
91.5,66.8,69.2,69.6,68.5,1.5
91.75,66.4,69.9,69.5,68.6,1.9
92.0,66.9,69.5,68.9,68.4,1.4
92.25,66.4,69.4,69.5,68.4,1.8
92.5,66.7,69.3,69.3,68.4,1.5
92.75,67.0,69.2,70.3,68.8,1.7
93.0,66.9,69.7,68.7,68.4,1.4
93.25,66.0,69.4,68.8,68.1,1.8
93.5,65.5,69.3,69.5,68.1,2.3
93.75,66.2,69.7,68.2,68.0,1.8
94.0,65.5,70.1,68.6,68.1,2.4
94.25,66.1,69.1,68.6,68.0,1.6
94.5,66.3,68.9,69.8,68.4,1.8
94.75,65.5,68.4,68.1,67.4,1.6
95.0,66.3,68.9,68.4,67.9,1.4
95.25,66.7,69.1,67.8,67.9,1.2
95.5,65.5,69.6,68.1,67.7,2.1
95.75,65.1,68.2,68.5,67.3,1.9
96.0,67.3,69.7,68.8,68.6,1.2
96.25,66.1,69.0,67.5,67.5,1.5
96.5,65.1,68.9,68.7,67.6,2.1
96.75,65.9,69.1,69.5,68.2,2.0
97.0,65.4,67.5,67.1,66.7,1.1
97.25,65.8,70.1,67.9,67.9,2.1
97.5,65.8,69.5,67.9,67.8,1.8
97.75,65.2,68.2,68.3,67.2,1.8
98.0,65.1,68.0,66.9,66.7,1.5
98.25,64.5,69.9,67.9,67.5,2.7
98.5,64.7,67.6,68.0,66.8,1.8
98.75,65.8,68.3,67.7,67.3,1.3
99.0,65.3,68.1,69.7,67.7,2.2
99.25,63.7,68.2,67.7,66.5,2.4
99.5,66.5,66.4,66.6,66.5,0.1
99.75,65.6,66.6,67.3,66.5,0.9
100.0,64.2,66.2,68.1,66.2,1.9
100.25,64.4,67.2,66.8,66.1,1.5
100.5,65.4,66.9,67.0,66.4,0.9
100.75,64.7,67.6,67.4,66.6,1.6
101.0,65.4,66.1,66.5,66.0,0.6
101.25,65.9,68.4,66.3,66.9,1.3
101.5,64.8,67.1,66.8,66.3,1.2
101.75,65.6,67.0,66.2,66.3,0.7
102.0,65.4,66.4,65.8,65.8,0.5
102.25,65.1,66.1,65.9,65.7,0.5
102.5,66.1,66.8,66.7,66.5,0.4
102.75,65.6,66.9,66.2,66.2,0.6
103.0,65.2,67.4,65.8,66.1,1.1
103.25,66.5,66.9,64.9,66.1,1.1
103.5,66.1,65.9,65.7,65.9,0.2
103.75,66.3,66.1,65.8,66.1,0.2
104.0,65.3,65.9,66.2,65.8,0.5
104.25,65.1,67.9,65.8,66.3,1.5
104.5,64.6,65.9,65.0,65.2,0.6
104.75,64.9,66.8,65.1,65.6,1.0
105.0,65.1,67.4,64.7,65.7,1.5
105.25,65.6,66.0,65.0,65.5,0.5
105.5,65.3,66.1,65.6,65.6,0.4
105.75,65.1,65.6,65.0,65.2,0.3
106.0,65.6,66.4,65.2,65.7,0.6
106.25,64.5,66.1,65.2,65.3,0.8
106.5,64.0,65.7,65.2,64.9,0.8
106.75,63.7,65.8,64.6,64.7,1.0
107.0,64.0,65.5,65.3,64.9,0.8
107.25,65.0,64.6,64.5,64.7,0.3
107.5,64.7,65.2,64.4,64.8,0.4
107.75,63.9,65.3,64.2,64.4,0.7
108.0,63.8,65.7,64.1,64.5,1.0
108.25,63.5,65.2,64.6,64.4,0.8
108.5,63.9,65.6,65.3,64.9,0.9
108.75,63.9,65.5,64.0,64.4,0.9
109.0,62.4,66.0,63.8,64.0,1.8
109.25,63.3,65.5,65.0,64.6,1.1
109.5,63.8,65.7,63.2,64.2,1.3
109.75,62.7,65.0,63.5,63.7,1.2
110.0,64.3,63.8,63.6,63.9,0.4
110.25,63.9,65.2,63.6,64.2,0.8
110.5,62.0,63.6,63.6,63.1,0.9
110.75,63.2,63.6,63.2,63.4,0.2
111.0,63.3,64.4,64.0,63.9,0.6
111.25,62.6,64.5,63.2,63.4,0.9
111.5,63.3,65.8,61.9,63.7,2.0
111.75,62.8,65.0,63.3,63.7,1.1
112.0,62.6,64.7,62.4,63.3,1.3
112.25,62.1,64.5,62.9,63.2,1.2
112.5,62.3,64.9,62.0,63.0,1.6
112.75,62.6,64.5,62.9,63.3,1.0
113.0,62.2,63.9,62.7,63.0,0.9
113.25,62.1,63.2,62.2,62.5,0.6
113.5,62.2,64.3,62.2,62.9,1.2
113.75,62.1,64.1,62.8,63.0,1.0
114.0,61.5,63.0,61.3,61.9,0.9
114.25,61.3,64.9,62.8,63.0,1.8
114.5,61.3,65.0,62.3,62.9,2.0
114.75,60.8,64.8,61.1,62.2,2.3
115.0,61.2,63.9,62.0,62.4,1.4
115.25,60.9,64.5,60.6,62.0,2.2
115.5,61.7,63.9,62.4,62.7,1.1
115.75,61.1,63.8,60.9,61.9,1.6
116.0,61.7,64.2,61.3,62.4,1.5
116.25,62.5,64.2,61.3,62.7,1.5
116.5,62.1,64.2,60.4,62.2,1.9
116.75,61.8,63.4,59.6,61.6,1.9
117.0,61.3,64.0,60.2,61.8,2.0
117.25,60.7,63.9,60.5,61.7,1.9
117.5,61.0,63.6,60.1,61.6,1.8
117.75,60.3,63.7,59.5,61.2,2.2
118.0,61.2,63.7,60.1,61.7,1.8
118.25,60.7,64.2,59.5,61.5,2.4
118.5,60.9,65.1,59.2,61.7,3.1
118.75,60.8,65.6,59.0,61.8,3.4
119.0,61.3,65.0,59.4,61.9,2.8
119.25,60.8,64.0,58.5,61.1,2.8
119.5,60.7,64.5,59.3,61.5,2.7
119.75,60.3,64.3,58.2,60.9,3.1
120.0,60.6,63.6,59.0,61.1,2.3
120.25,59.4,63.9,58.9,60.7,2.7
120.5,58.9,63.8,59.1,60.6,2.8
120.75,59.2,64.2,59.0,60.8,3.0
121.0,59.9,63.9,58.4,60.8,2.8
121.25,59.5,64.5,58.7,60.9,3.2
121.5,60.2,64.1,57.4,60.6,3.4
121.75,58.5,63.6,59.3,60.5,2.7
122.0,59.5,64.1,59.0,60.9,2.8
122.25,59.4,63.2,58.5,60.4,2.5
122.5,58.2,64.3,58.4,60.3,3.5
122.75,58.5,63.7,58.2,60.2,3.1
123.0,58.2,63.5,58.1,59.9,3.1
123.25,59.3,63.0,58.1,60.1,2.5
123.5,59.2,63.2,58.6,60.3,2.5
123.75,58.4,64.6,58.3,60.4,3.6
124.0,58.0,62.5,58.3,59.6,2.5
124.25,58.4,63.3,58.2,60.0,2.9
124.5,59.1,63.2,57.8,60.0,2.8
124.75,58.4,63.6,58.9,60.3,2.9
125.0,58.5,63.0,58.9,60.1,2.5
125.25,58.4,64.2,58.0,60.2,3.5
125.5,56.9,62.7,58.4,59.3,3.0
125.75,57.5,63.4,57.8,59.6,3.3
126.0,58.0,63.6,57.5,59.7,3.4
126.25,58.3,63.6,58.5,60.1,3.0
126.5,58.1,63.1,58.4,59.9,2.8
126.75,57.2,63.0,57.6,59.3,3.2
127.0,57.8,64.1,58.0,60.0,3.6
127.25,57.8,63.1,58.1,59.7,2.9
127.5,57.4,63.7,58.3,59.8,3.4
127.75,57.2,63.8,59.0,60.0,3.5
128.0,57.3,63.8,57.3,59.5,3.8
128.25,57.0,63.9,58.8,59.9,3.6
128.5,56.8,63.5,57.7,59.4,3.6
128.75,58.2,63.9,57.9,60.0,3.4
129.0,58.3,63.4,57.4,59.7,3.2
129.25,57.0,63.8,57.7,59.5,3.8
129.5,57.2,63.1,58.3,59.5,3.1
129.75,57.3,64.2,57.3,59.6,4.0
130.0,57.4,64.8,57.0,59.7,4.4
130.25,57.5,63.3,58.7,59.8,3.1
130.5,57.9,63.4,57.1,59.5,3.4
130.75,57.1,62.7,57.4,59.1,3.1
131.0,56.0,63.0,57.4,58.8,3.7
131.25,58.2,62.9,56.8,59.3,3.2
131.5,57.7,62.9,57.2,59.3,3.1
131.75,57.8,62.5,57.0,59.1,2.9
132.0,57.8,62.9,57.8,59.5,2.9
132.25,58.1,62.7,57.8,59.5,2.8
132.5,57.9,61.9,58.6,59.5,2.1
132.75,57.8,63.3,56.3,59.1,3.7
133.0,56.8,62.4,57.2,58.8,3.2
133.25,57.9,62.9,57.1,59.3,3.1
133.5,57.3,62.6,56.3,58.7,3.4
133.75,57.9,62.6,56.9,59.1,3.0
134.0,57.3,61.8,56.9,58.7,2.7
134.25,57.3,61.8,57.1,58.8,2.7
134.5,56.8,63.1,57.4,59.1,3.5
134.75,57.5,61.6,56.5,58.5,2.7
135.0,57.6,63.2,56.7,59.1,3.5
135.25,56.5,61.6,57.4,58.5,2.7
135.5,57.3,61.9,56.3,58.5,3.0
135.75,57.9,62.3,57.2,59.1,2.7
136.0,56.4,62.8,57.1,58.8,3.5
136.25,57.2,62.5,58.1,59.2,2.8
136.5,56.7,62.9,57.1,58.9,3.4
136.75,57.0,61.6,57.1,58.6,2.6
137.0,57.1,62.0,56.8,58.6,3.0
137.25,56.9,62.5,56.7,58.7,3.3
137.5,57.6,61.4,56.3,58.5,2.6
137.75,56.1,62.5,56.8,58.5,3.5
138.0,56.7,62.3,57.2,58.7,3.1
138.25,56.5,62.1,56.6,58.4,3.2
138.5,56.6,62.7,55.8,58.4,3.8
138.75,56.3,62.3,56.5,58.3,3.4
139.0,56.7,62.9,56.2,58.6,3.8
139.25,56.5,62.2,55.8,58.2,3.5
139.5,56.9,62.0,56.5,58.5,3.1
139.75,55.8,62.8,55.6,58.0,4.1
140.0,56.9,61.9,56.5,58.4,3.0
140.25,56.7,61.3,56.1,58.0,2.8
140.5,56.5,62.0,55.8,58.1,3.4
140.75,56.3,61.9,55.3,57.8,3.5
141.0,56.1,62.6,55.5,58.1,3.9
141.25,57.0,61.0,56.2,58.1,2.5
141.5,56.4,61.4,54.9,57.6,3.4
141.75,56.7,61.0,54.8,57.5,3.2
142.0,57.5,61.9,54.6,58.0,3.7
142.25,56.2,61.9,55.9,58.0,3.4
142.5,58.2,60.5,54.9,57.8,2.8
142.75,57.1,61.6,54.9,57.9,3.4
143.0,56.9,60.9,54.9,57.6,3.1
143.25,56.6,61.2,54.7,57.5,3.4
143.5,57.8,62.0,54.7,58.2,3.7
143.75,57.0,61.7,54.2,57.6,3.8
144.0,57.1,61.0,54.1,57.4,3.4
144.25,57.1,61.3,53.5,57.3,3.9
144.5,56.5,61.6,54.0,57.4,3.9
144.75,57.9,61.0,55.0,57.9,3.0
145.0,57.6,61.6,53.8,57.6,3.9
145.25,57.1,61.4,54.2,57.6,3.6
145.5,57.4,61.4,54.1,57.7,3.7
145.75,57.7,60.5,53.7,57.3,3.4
146.0,57.2,61.2,53.6,57.4,3.8
146.25,56.9,61.6,53.8,57.4,3.9
146.5,57.5,61.4,54.2,57.7,3.6
146.75,58.1,60.8,53.5,57.5,3.7
147.0,57.4,61.2,53.3,57.3,3.9
147.25,57.8,60.7,53.5,57.3,3.6
147.5,57.3,62.0,54.1,57.8,4.0
147.75,57.5,60.9,53.3,57.2,3.8
148.0,58.0,61.0,52.8,57.3,4.1
148.25,58.3,60.6,54.0,57.6,3.4
148.5,57.0,61.8,52.9,57.2,4.4
148.75,57.5,60.4,52.7,56.9,3.9
149.0,58.3,61.9,52.7,57.6,4.7
149.25,56.9,61.0,53.0,56.9,4.0
149.5,57.2,61.5,52.7,57.1,4.4
149.75,57.5,59.6,52.9,56.7,3.4
150.0,57.7,60.6,52.8,57.1,3.9
150.25,58.5,60.8,51.8,57.0,4.7
150.5,57.3,61.0,52.3,56.9,4.4
150.75,57.8,61.0,52.5,57.1,4.3
151.0,57.4,61.1,52.4,57.0,4.4
151.25,58.0,60.5,52.3,57.0,4.2
151.5,58.1,60.0,52.2,56.8,4.1
151.75,57.4,60.3,51.9,56.5,4.2
152.0,58.2,60.1,51.9,56.7,4.3
152.25,57.4,60.8,51.7,56.6,4.6
152.5,57.5,60.3,51.5,56.4,4.5
152.75,58.3,61.6,52.2,57.4,4.8
153.0,58.0,60.7,51.0,56.6,5.0
153.25,57.8,60.9,51.8,56.8,4.6
153.5,58.4,60.9,51.8,57.0,4.7
153.75,57.7,60.6,52.2,56.8,4.3
154.0,58.0,59.7,52.3,56.7,3.9
154.25,58.3,60.3,52.1,56.9,4.3
154.5,57.8,60.3,51.3,56.5,4.7
154.75,57.9,61.0,51.9,56.9,4.6
155.0,58.4,59.4,51.2,56.3,4.5
155.25,57.6,59.2,51.8,56.2,3.9
155.5,57.2,59.4,51.2,56.0,4.3
155.75,57.4,60.0,51.3,56.2,4.5
156.0,58.0,59.0,51.5,56.1,4.1
156.25,57.5,59.9,51.4,56.3,4.4
156.5,57.4,58.8,52.2,56.1,3.5
156.75,57.6,58.8,52.2,56.2,3.5
157.0,57.1,58.3,51.6,55.7,3.6
157.25,56.8,57.9,52.2,55.7,3.0
157.5,56.9,57.2,50.9,55.0,3.6
157.75,57.1,57.5,52.2,55.6,2.9
158.0,56.9,58.1,51.2,55.4,3.7
158.25,57.4,57.9,51.0,55.4,3.8
158.5,56.4,57.4,51.7,55.2,3.0
158.75,57.6,57.1,49.9,54.8,4.3
159.0,56.7,57.0,51.4,55.0,3.2
159.25,56.8,56.8,50.7,54.8,3.5
159.5,57.4,57.0,51.1,55.2,3.5
159.75,56.0,56.5,50.7,54.4,3.2
160.0,56.2,56.5,50.4,54.4,3.4
160.25,57.0,57.3,50.5,54.9,3.8
160.5,56.3,57.3,49.8,54.5,4.1
160.75,56.2,57.2,50.8,54.7,3.4
161.0,56.4,56.8,51.0,54.7,3.2
161.25,57.7,56.4,50.3,54.8,3.9
161.5,56.5,56.5,50.3,54.4,3.6
161.75,56.4,56.4,49.5,54.1,4.0
162.0,57.6,57.5,50.0,55.0,4.4
162.25,57.2,56.7,49.9,54.6,4.1
162.5,57.4,56.5,50.2,54.7,4.0
162.75,57.2,56.7,49.4,54.4,4.3
163.0,55.5,57.0,49.0,53.8,4.3
163.25,57.1,57.6,50.0,54.9,4.2
163.5,57.0,56.6,49.4,54.4,4.3
163.75,57.4,57.6,49.0,54.7,4.9
164.0,56.7,58.1,48.9,54.6,5.0
164.25,56.8,57.6,49.2,54.5,4.7
164.5,56.4,57.0,49.8,54.4,4.0
164.75,57.1,56.2,49.3,54.2,4.2
165.0,56.8,58.2,49.0,54.6,4.9
165.25,56.2,57.5,49.5,54.4,4.3
165.5,56.8,57.1,49.4,54.4,4.4
165.75,56.9,57.7,48.8,54.5,4.9
166.0,57.4,57.6,49.7,54.9,4.5
166.25,56.3,58.3,49.6,54.8,4.6
166.5,56.2,57.8,49.4,54.4,4.5
166.75,56.3,57.8,48.7,54.2,4.9
167.0,56.7,57.5,49.1,54.4,4.6
167.25,56.8,58.6,49.5,55.0,4.8
167.5,57.2,58.3,48.6,54.7,5.3
167.75,55.8,57.4,49.3,54.2,4.3
168.0,56.6,57.9,48.7,54.4,4.9
168.25,56.1,57.9,49.2,54.4,4.6
168.5,56.7,57.6,49.2,54.5,4.6
168.75,56.0,57.2,48.9,54.0,4.5
169.0,55.7,56.8,49.8,54.1,3.8
169.25,56.2,56.7,49.5,54.2,4.0
169.5,56.3,57.3,48.8,54.2,4.7
169.75,55.9,57.3,50.4,54.5,3.6
170.0,56.2,56.6,49.5,54.1,4.0
170.25,56.6,56.8,49.0,54.1,4.5
170.5,56.8,56.5,49.5,54.3,4.2
170.75,56.3,56.7,49.6,54.2,4.0
171.0,55.9,56.7,49.5,54.0,4.0
171.25,57.1,56.7,49.3,54.4,4.4
171.5,56.0,56.5,49.2,53.9,4.1
171.75,56.7,56.3,49.1,54.1,4.3
172.0,56.9,56.1,49.8,54.3,3.9
172.25,55.8,56.7,49.2,53.9,4.1
172.5,56.9,55.7,49.1,53.9,4.2
172.75,56.7,56.2,48.9,53.9,4.4
173.0,56.9,56.1,49.3,54.1,4.2
173.25,57.1,56.7,49.1,54.3,4.5
173.5,56.1,57.3,48.8,54.1,4.6
173.75,57.0,56.1,48.0,53.7,5.0
174.0,56.8,56.1,49.5,54.1,4.0
174.25,56.6,56.1,48.8,53.8,4.4
174.5,56.6,56.7,48.5,53.9,4.7
174.75,56.2,56.3,48.9,53.8,4.2
175.0,56.1,56.6,49.0,53.9,4.2
175.25,56.2,55.9,48.4,53.5,4.4
175.5,56.4,55.9,48.5,53.6,4.4
175.75,56.1,55.8,48.5,53.5,4.3
176.0,56.4,55.6,48.6,53.5,4.3
176.25,56.3,56.1,48.7,53.7,4.3
176.5,57.0,56.1,47.9,53.7,5.0
176.75,55.6,56.7,48.1,53.5,4.7
177.0,56.4,56.7,47.8,53.6,5.1
177.25,56.0,55.6,47.9,53.2,4.6
177.5,56.1,55.8,48.8,53.6,4.1
177.75,55.6,55.5,47.7,53.0,4.5
178.0,56.4,55.4,48.0,53.3,4.6
178.25,55.8,55.3,47.8,53.0,4.5
178.5,55.6,55.5,48.6,53.2,4.0
178.75,56.3,56.8,48.9,54.0,4.4
179.0,55.3,56.0,48.1,53.1,4.4
179.25,56.6,55.7,48.5,53.6,4.4
179.5,55.9,55.5,48.2,53.2,4.3
179.75,55.6,55.7,48.0,53.1,4.4
180.0,55.2,55.3,47.0,52.5,4.7
180.25,56.0,56.0,48.6,53.5,4.3
180.5,55.9,55.6,48.0,53.2,4.5
180.75,55.8,55.9,48.3,53.3,4.4
181.0,55.2,55.6,48.2,53.0,4.2
181.25,55.7,55.1,48.4,53.1,4.1
181.5,55.0,55.0,47.3,52.4,4.5
181.75,55.3,54.1,47.7,52.4,4.1
182.0,55.4,55.2,48.5,53.0,3.9
182.25,55.0,55.1,47.7,52.6,4.2
182.5,54.8,55.2,48.8,52.9,3.6
182.75,55.9,54.6,47.9,52.8,4.3
183.0,55.2,54.2,47.3,52.2,4.3
183.25,54.8,53.9,48.5,52.4,3.4
183.5,55.4,54.5,47.9,52.6,4.1
183.75,55.1,54.4,48.3,52.6,3.8
184.0,55.5,55.2,47.6,52.8,4.5
184.25,55.0,54.5,47.9,52.5,4.0
184.5,54.0,53.8,48.7,52.2,3.0
184.75,55.7,54.6,47.6,52.6,4.4
185.0,54.3,54.0,48.1,52.1,3.5
185.25,54.1,54.1,48.0,52.1,3.5
185.5,55.2,54.9,47.7,52.6,4.3
185.75,54.2,54.5,48.3,52.3,3.5
186.0,54.2,54.7,47.8,52.2,3.9
186.25,54.8,54.3,48.1,52.4,3.8
186.5,54.7,54.1,47.8,52.2,3.8
186.75,54.5,54.5,47.6,52.2,4.0
187.0,54.5,54.4,47.8,52.2,3.8
187.25,55.3,53.8,48.0,52.4,3.8
187.5,55.4,54.2,48.2,52.6,3.9
187.75,55.4,55.2,47.8,52.8,4.3
188.0,55.0,54.3,48.2,52.5,3.7
188.25,55.3,54.5,48.1,52.6,4.0
188.5,55.4,56.0,47.7,53.0,4.6
188.75,54.8,54.9,48.5,52.7,3.7
189.0,55.4,55.0,47.5,52.6,4.4
189.25,54.8,56.0,48.2,53.0,4.2
189.5,54.8,55.4,48.3,52.8,3.9
189.75,54.8,55.6,48.7,53.0,3.7
190.0,55.1,55.6,47.8,52.8,4.4
190.25,55.3,57.0,48.2,53.5,4.7
190.5,54.8,56.0,48.4,53.0,4.1
190.75,54.8,55.7,48.7,53.1,3.8
191.0,55.4,56.3,48.4,53.4,4.3
191.25,55.3,55.9,48.3,53.2,4.2
191.5,54.2,56.8,48.1,53.0,4.5
191.75,54.6,56.9,48.2,53.2,4.5
192.0,54.5,56.3,48.2,53.0,4.2
192.25,54.6,56.0,48.4,53.0,4.0
192.5,54.8,56.9,48.3,53.3,4.5
192.75,54.2,57.1,48.6,53.3,4.3
193.0,53.6,57.1,48.3,53.0,4.4
193.25,54.3,56.5,48.7,53.1,4.0
193.5,53.9,57.0,48.7,53.2,4.2
193.75,53.8,56.6,48.8,53.1,3.9
194.0,53.7,56.1,48.4,52.7,4.0
194.25,53.8,56.9,49.2,53.3,3.9
194.5,54.1,55.8,49.6,53.2,3.2
194.75,54.1,56.0,49.1,53.0,3.5
195.0,54.0,56.2,48.8,53.0,3.8
195.25,53.7,56.6,48.3,52.9,4.2
195.5,54.3,55.7,48.9,53.0,3.6
195.75,54.6,55.8,48.7,53.0,3.8
196.0,53.5,56.4,49.1,53.0,3.6
196.25,54.2,55.8,48.1,52.7,4.1
196.5,54.1,55.1,48.2,52.5,3.7
196.75,53.7,56.0,49.0,52.9,3.6
197.0,54.0,56.0,48.8,52.9,3.7
197.25,53.7,55.2,48.9,52.6,3.3
197.5,53.8,55.6,48.5,52.6,3.7
197.75,53.7,55.7,48.2,52.5,3.9
198.0,53.8,55.1,48.3,52.4,3.6
198.25,52.9,56.4,48.7,52.7,3.8
198.5,53.3,55.3,48.2,52.3,3.7
198.75,53.2,55.2,47.8,52.1,3.8
199.0,53.0,55.5,48.5,52.3,3.6
199.25,52.8,55.2,48.5,52.2,3.4
199.5,53.1,55.1,47.6,51.9,3.9
199.75,52.6,54.9,47.6,51.7,3.7
200.0,53.2,55.3,47.5,52.0,4.1
200.25,52.6,55.0,47.8,51.8,3.7
200.5,53.5,55.4,47.9,52.3,3.9
200.75,52.5,55.1,48.0,51.8,3.6
201.0,53.0,54.7,48.2,51.9,3.4
201.25,52.7,55.2,48.2,52.0,3.5
201.5,52.6,54.7,48.4,51.9,3.2
201.75,52.9,54.6,48.4,52.0,3.2
202.0,53.2,53.9,47.9,51.7,3.3
202.25,53.9,53.8,47.3,51.7,3.8
202.5,52.7,53.9,48.5,51.7,2.8
202.75,53.2,54.5,48.3,52.0,3.3
203.0,53.2,54.3,47.1,51.6,3.9
203.25,52.5,55.3,48.0,52.0,3.7
203.5,53.0,53.7,48.4,51.7,2.9
203.75,53.1,54.0,47.6,51.6,3.5
204.0,52.8,53.2,48.1,51.3,2.8
204.25,54.0,53.8,47.5,51.8,3.7
204.5,53.0,53.8,46.8,51.2,3.8
204.75,53.1,53.3,47.4,51.3,3.4
205.0,53.1,53.6,47.8,51.5,3.2
205.25,53.2,54.1,47.5,51.6,3.6
205.5,53.7,53.7,47.2,51.5,3.7
205.75,53.5,54.6,46.8,51.6,4.2
206.0,53.4,54.1,47.2,51.6,3.8
206.25,52.8,54.7,46.8,51.4,4.1
206.5,53.1,54.4,47.3,51.6,3.8
206.75,53.9,54.4,47.1,51.8,4.1
207.0,54.6,55.2,46.9,52.2,4.7
207.25,53.4,55.4,46.5,51.8,4.7
207.5,54.1,54.9,47.2,52.1,4.3
207.75,53.6,55.0,47.6,52.1,4.0
208.0,53.9,54.8,47.1,51.9,4.2
208.25,53.2,55.2,47.1,51.8,4.2
208.5,53.9,56.1,48.1,52.7,4.1
208.75,54.3,55.9,47.8,52.7,4.3
209.0,53.7,55.3,48.2,52.4,3.8
209.25,53.7,55.5,49.5,52.9,3.1
209.5,53.0,55.4,49.5,52.6,3.0
209.75,53.1,55.9,49.3,52.8,3.3
210.0,53.6,55.3,48.8,52.6,3.4
210.25,53.6,55.8,48.7,52.7,3.6
210.5,53.1,55.0,48.9,52.4,3.1
210.75,53.8,54.8,49.3,52.6,2.9
211.0,52.6,55.8,48.5,52.3,3.6
211.25,53.3,54.5,48.9,52.2,3.0
211.5,53.1,55.6,49.9,52.9,2.8
211.75,52.7,55.8,50.0,52.8,2.9
212.0,52.7,55.6,49.3,52.5,3.2
212.25,53.0,55.3,50.1,52.8,2.6
212.5,52.4,56.1,49.6,52.7,3.3
212.75,52.2,55.2,50.0,52.5,2.6
213.0,52.3,55.5,49.3,52.4,3.1
213.25,52.2,56.1,49.8,52.7,3.2
213.5,53.1,56.4,50.2,53.2,3.1
213.75,52.6,55.4,50.0,52.7,2.7
214.0,52.7,56.2,50.1,53.0,3.0
214.25,53.6,54.9,50.0,52.8,2.5
214.5,52.4,55.8,49.1,52.4,3.4
214.75,52.4,56.7,49.8,52.9,3.5
215.0,52.1,56.0,50.1,52.7,3.0
215.25,52.2,55.6,49.5,52.4,3.0
215.5,52.9,55.3,48.9,52.4,3.2
215.75,53.1,56.1,49.8,53.0,3.1
216.0,52.2,55.5,50.0,52.5,2.8
216.25,52.7,55.3,49.3,52.4,3.0
216.5,52.9,55.8,49.4,52.7,3.2
216.75,52.7,56.7,49.0,52.8,3.9
217.0,53.3,56.0,49.2,52.8,3.4
217.25,52.2,55.4,49.2,52.3,3.1
217.5,52.7,55.3,48.6,52.2,3.4
217.75,52.0,56.1,49.1,52.4,3.5
218.0,52.1,55.7,49.1,52.3,3.3
218.25,52.4,55.4,48.8,52.2,3.3
218.5,52.6,55.1,49.0,52.2,3.0
218.75,52.2,55.6,49.3,52.3,3.1
219.0,52.7,55.8,48.7,52.4,3.6
219.25,52.5,56.0,48.6,52.3,3.7
219.5,52.4,54.6,49.1,52.0,2.8
219.75,52.5,55.9,49.1,52.5,3.4
220.0,52.2,57.0,49.2,52.8,3.9
220.25,52.8,55.5,49.6,52.6,3.0
220.5,52.3,55.7,48.7,52.2,3.5
220.75,52.2,55.5,49.0,52.3,3.2
221.0,52.0,54.4,49.4,51.9,2.5
221.25,51.3,55.8,49.3,52.1,3.3
221.5,52.3,55.5,50.0,52.6,2.7
221.75,52.0,56.1,49.1,52.4,3.5
222.0,51.8,55.6,49.1,52.2,3.2
222.25,51.4,56.4,49.3,52.3,3.6
222.5,51.8,56.0,49.1,52.3,3.5
222.75,51.6,56.9,49.0,52.5,4.0
223.0,52.3,55.7,49.3,52.4,3.2
223.25,51.6,55.3,48.6,51.8,3.4
223.5,51.0,57.4,48.6,52.3,4.5
223.75,51.9,56.4,48.5,52.3,3.9
224.0,51.7,56.5,48.6,52.3,4.0
224.25,51.6,56.1,48.8,52.2,3.7
224.5,52.1,55.4,48.0,51.8,3.7
224.75,52.2,56.1,49.0,52.4,3.6
225.0,51.7,56.5,48.3,52.2,4.1
225.25,50.8,56.4,48.1,51.7,4.3
225.5,51.5,56.1,47.9,51.8,4.2
225.75,51.5,55.5,48.0,51.6,3.8
226.0,50.6,56.5,47.5,51.5,4.6
226.25,50.4,55.5,48.3,51.4,3.7
226.5,51.5,55.8,47.9,51.7,3.9
226.75,52.1,55.5,48.5,52.0,3.5
227.0,51.3,55.2,48.3,51.6,3.5
227.25,51.1,54.9,48.1,51.4,3.4
227.5,51.3,55.5,48.1,51.6,3.7
227.75,51.8,55.1,48.1,51.7,3.5
228.0,51.9,54.0,49.1,51.7,2.4
228.25,51.0,54.8,48.2,51.3,3.3
228.5,51.5,54.6,48.2,51.4,3.2
228.75,51.2,54.7,47.4,51.1,3.6
229.0,51.4,54.1,48.0,51.2,3.1
229.25,52.1,53.9,48.3,51.4,2.8
229.5,52.1,54.5,48.0,51.5,3.3
229.75,50.9,53.4,48.7,51.0,2.4
230.0,51.0,54.7,47.8,51.1,3.4
230.25,51.4,53.4,48.4,51.0,2.5
230.5,51.2,53.8,48.2,51.1,2.8
230.75,51.6,53.6,47.6,50.9,3.0
231.0,51.3,52.9,48.3,50.9,2.3
231.25,51.4,54.2,47.3,51.0,3.5
231.5,51.9,53.4,48.0,51.1,2.8
231.75,52.1,53.3,48.2,51.2,2.7
232.0,52.1,53.1,48.3,51.2,2.5
232.25,51.6,53.0,48.1,50.9,2.5
232.5,50.5,52.7,48.1,50.4,2.3
232.75,51.1,52.2,48.2,50.5,2.1
233.0,51.3,51.8,48.3,50.5,1.9
233.25,50.7,52.3,47.2,50.1,2.6
233.5,50.8,52.4,48.0,50.4,2.2
233.75,50.9,52.7,47.7,50.4,2.5
234.0,51.4,52.9,48.1,50.8,2.5
234.25,51.1,52.4,48.0,50.5,2.3
234.5,51.6,52.7,47.8,50.7,2.6
234.75,52.0,52.9,47.5,50.8,2.9
235.0,51.2,52.1,47.9,50.4,2.2
235.25,51.8,52.5,48.2,50.9,2.3
235.5,51.6,52.4,48.4,50.8,2.1
235.75,51.2,51.4,47.4,50.0,2.3
236.0,51.2,51.8,47.8,50.3,2.1
236.25,51.6,51.6,47.6,50.3,2.3
236.5,51.1,52.1,48.0,50.4,2.1
236.75,51.0,51.9,48.2,50.4,1.9
237.0,50.7,51.7,47.9,50.1,2.0
237.25,51.5,51.7,47.9,50.4,2.1
237.5,51.2,52.6,47.4,50.4,2.7
237.75,51.6,51.2,47.7,50.2,2.2
238.0,52.2,52.1,48.3,50.8,2.2
238.25,51.9,52.5,47.8,50.7,2.5
238.5,51.8,51.8,47.2,50.3,2.6
238.75,51.6,51.4,47.6,50.2,2.3
239.0,51.1,52.3,47.5,50.3,2.5
239.25,50.7,51.3,47.1,49.7,2.3
239.5,50.5,51.4,47.4,49.8,2.1
239.75,51.3,51.7,46.7,49.9,2.8
240.0,50.8,51.7,46.8,49.8,2.6
240.25,50.9,51.5,47.3,49.9,2.2
240.5,49.9,51.7,46.9,49.5,2.4
240.75,50.6,51.6,46.6,49.6,2.7
241.0,51.0,51.5,46.3,49.6,2.8
241.25,50.3,51.7,46.6,49.6,2.7
241.5,50.4,50.9,46.4,49.2,2.5
241.75,50.3,51.5,46.3,49.4,2.7
242.0,50.2,51.7,47.4,49.8,2.2
242.25,50.6,51.7,46.6,49.6,2.7
242.5,50.0,51.8,46.7,49.5,2.6
242.75,50.0,52.0,46.8,49.6,2.6
243.0,50.4,52.0,46.6,49.7,2.8
243.25,50.1,52.5,46.9,49.8,2.8
243.5,50.5,50.9,46.0,49.2,2.7
243.75,51.1,52.4,46.6,50.0,3.0
244.0,50.2,52.5,46.7,49.8,2.9
244.25,49.8,52.6,46.8,49.8,2.9
244.5,50.1,52.0,46.8,49.6,2.6
244.75,50.4,51.8,46.6,49.6,2.7
245.0,49.5,52.2,47.1,49.6,2.6
245.25,50.6,52.6,46.4,49.9,3.1
245.5,49.6,51.6,46.6,49.3,2.5
245.75,49.5,52.0,46.0,49.2,3.1
246.0,50.4,51.9,47.0,49.8,2.5
246.25,49.7,51.6,46.7,49.3,2.5
246.5,49.4,51.7,46.7,49.2,2.5
246.75,50.6,51.8,47.1,49.8,2.5
247.0,50.1,52.1,45.9,49.4,3.2
247.25,49.6,52.2,47.4,49.7,2.4
247.5,49.8,51.5,47.3,49.5,2.1
247.75,50.1,51.9,46.8,49.6,2.6
248.0,49.6,52.0,46.3,49.3,2.8
248.25,50.3,51.6,46.7,49.5,2.5
248.5,49.5,52.1,46.5,49.4,2.8
248.75,50.0,51.9,47.0,49.6,2.5
249.0,50.0,51.5,46.5,49.3,2.6
249.25,49.7,52.3,46.2,49.4,3.1
249.5,49.5,51.8,45.6,49.0,3.1
249.75,49.7,52.0,46.6,49.5,2.7
250.0,50.0,51.8,46.3,49.4,2.8
250.25,50.0,52.3,46.5,49.6,3.0
250.5,48.9,51.3,46.5,48.9,2.4
250.75,50.2,51.9,47.9,50.0,2.0
251.0,50.2,51.9,46.6,49.5,2.7
251.25,50.5,51.7,47.0,49.7,2.5
251.5,50.3,52.5,47.4,50.1,2.5
251.75,50.8,51.6,46.7,49.7,2.6
252.0,50.2,51.9,46.3,49.5,2.9
252.25,49.6,51.5,46.9,49.4,2.3
252.5,50.1,52.3,47.2,49.8,2.5
252.75,49.4,51.9,46.8,49.4,2.5
253.0,49.7,51.5,46.5,49.3,2.5
253.25,49.4,52.5,46.6,49.5,3.0
253.5,49.5,51.9,46.9,49.4,2.5
253.75,50.3,51.4,47.1,49.6,2.3
254.0,49.4,51.9,46.8,49.4,2.6
254.25,50.1,50.6,46.8,49.2,2.0
254.5,49.7,52.1,46.8,49.6,2.7
254.75,50.1,51.5,46.8,49.4,2.4
255.0,49.7,52.0,46.2,49.3,2.9
255.25,50.0,51.6,47.1,49.6,2.2
255.5,50.1,50.7,47.1,49.3,1.9
255.75,49.8,50.5,46.2,48.8,2.3
256.0,49.6,50.8,47.2,49.2,1.8
256.25,50.4,51.0,46.9,49.4,2.2
256.5,50.5,51.2,47.4,49.7,2.0
256.75,49.7,50.9,47.2,49.3,1.9
257.0,49.8,51.2,47.0,49.3,2.1
257.25,50.3,52.5,47.1,49.9,2.7
257.5,50.3,51.3,47.9,49.8,1.8
257.75,50.1,51.4,47.6,49.7,1.9
258.0,49.8,50.9,47.4,49.4,1.8
258.25,50.3,50.6,48.1,49.7,1.4
258.5,50.2,50.7,47.6,49.5,1.7
258.75,50.0,50.1,47.5,49.2,1.5
259.0,49.8,50.5,47.7,49.3,1.5
259.25,51.5,50.6,48.6,50.2,1.4
259.5,50.4,50.9,47.0,49.4,2.2
259.75,50.8,51.4,48.0,50.1,1.8
260.0,49.8,51.3,47.9,49.7,1.7
260.25,50.2,49.7,47.9,49.3,1.2
260.5,50.2,50.6,47.7,49.5,1.6
260.75,50.6,51.0,47.7,49.8,1.8
261.0,50.3,51.0,47.7,49.6,1.7
261.25,50.2,51.1,48.0,49.8,1.6
261.5,49.9,50.9,47.9,49.6,1.5
261.75,49.2,50.2,47.8,49.1,1.2
262.0,49.8,51.3,48.1,49.7,1.6
262.25,49.8,51.2,48.0,49.7,1.6
262.5,50.4,50.5,47.7,49.5,1.6
262.75,49.7,51.0,47.7,49.5,1.7
263.0,49.9,50.3,48.2,49.5,1.1
263.25,49.7,51.3,47.7,49.6,1.8
263.5,50.3,50.4,48.2,49.6,1.3
263.75,50.4,50.9,47.2,49.5,2.0
264.0,49.5,51.0,47.4,49.3,1.8
264.25,49.4,50.3,47.2,49.0,1.6
264.5,49.4,50.9,47.5,49.3,1.7
264.75,49.1,51.0,47.5,49.2,1.8
265.0,49.1,49.7,46.9,48.6,1.5
265.25,49.3,50.4,46.5,48.8,2.0
265.5,49.0,49.9,47.1,48.7,1.4
265.75,49.7,50.7,47.2,49.2,1.8
266.0,49.3,50.1,46.9,48.8,1.6
266.25,49.1,49.9,46.7,48.6,1.7
266.5,49.4,49.9,47.0,48.8,1.5
266.75,49.3,50.5,47.2,49.0,1.7
267.0,49.8,50.6,47.1,49.1,1.8
267.25,50.1,49.7,47.3,49.0,1.5
267.5,49.6,50.2,47.1,48.9,1.6
267.75,49.5,50.1,48.0,49.2,1.1
268.0,49.3,49.7,47.1,48.7,1.4
268.25,49.4,50.0,47.0,48.8,1.6
268.5,48.6,50.7,47.1,48.8,1.8
268.75,49.1,50.9,47.8,49.3,1.6
269.0,50.9,50.1,47.3,49.4,1.9
269.25,49.6,49.9,47.2,48.9,1.5
269.5,49.0,49.7,47.7,48.8,1.0
269.75,49.3,50.2,46.8,48.8,1.8
270.0,49.1,50.2,48.7,49.4,0.8
270.25,48.7,49.9,47.0,48.5,1.5
270.5,49.8,50.0,47.8,49.2,1.2
270.75,48.8,49.8,47.8,48.8,1.0
271.0,49.1,50.0,47.7,48.9,1.2
271.25,49.3,49.5,47.5,48.7,1.1
271.5,48.9,49.9,48.0,48.9,0.9
271.75,49.4,49.6,47.9,49.0,0.9
272.0,48.7,49.6,47.8,48.7,0.9
272.25,48.9,49.4,47.4,48.6,1.0
272.5,48.9,49.9,48.1,49.0,0.9
272.75,48.9,49.5,48.4,48.9,0.6
273.0,48.3,49.8,47.9,48.7,1.0
273.25,48.7,49.9,47.6,48.8,1.2
273.5,49.0,49.7,48.5,49.1,0.6
273.75,48.6,50.7,47.7,49.0,1.6
274.0,49.2,49.5,47.2,48.6,1.3
274.25,48.2,50.3,48.0,48.8,1.3
274.5,48.2,50.2,48.3,48.9,1.1
274.75,48.4,50.6,47.8,48.9,1.5
275.0,49.1,50.0,48.4,49.1,0.8
275.25,48.1,49.8,47.9,48.6,1.1
275.5,47.8,50.3,49.1,49.1,1.2
275.75,47.9,49.2,48.2,48.4,0.7
276.0,48.4,48.9,48.2,48.5,0.4
276.25,48.3,48.6,48.8,48.5,0.3
276.5,48.4,49.6,48.6,48.9,0.6
276.75,48.0,50.0,48.3,48.8,1.0
277.0,48.2,48.7,48.6,48.5,0.3
277.25,47.8,48.5,48.2,48.2,0.4
277.5,47.6,48.9,48.0,48.2,0.6
277.75,47.7,48.8,47.9,48.1,0.6
278.0,47.9,48.8,47.9,48.2,0.5
278.25,48.3,48.9,49.0,48.7,0.4
278.5,47.3,48.7,48.0,48.0,0.7
278.75,48.1,48.6,48.4,48.4,0.3
279.0,48.2,47.7,49.1,48.3,0.7
279.25,48.1,48.1,48.4,48.2,0.2
279.5,47.1,48.5,48.6,48.1,0.8
279.75,47.2,47.7,48.3,47.8,0.6
280.0,47.6,47.8,48.6,48.0,0.5
280.25,47.8,47.9,49.0,48.2,0.7
280.5,47.1,47.7,48.6,47.8,0.8
280.75,46.5,47.9,49.0,47.8,1.3
281.0,46.5,47.7,49.0,47.7,1.2
281.25,46.3,47.3,48.3,47.3,1.0
281.5,46.3,47.8,48.5,47.5,1.1
281.75,46.2,48.0,49.0,47.8,1.4
282.0,46.2,47.9,48.7,47.6,1.3
282.25,45.5,47.0,48.0,46.8,1.3
282.5,46.7,46.5,49.8,47.7,1.8
282.75,46.4,47.5,48.6,47.5,1.1
283.0,45.7,47.0,48.5,47.1,1.4
283.25,46.7,46.6,48.8,47.4,1.2
283.5,46.9,46.3,48.6,47.2,1.2
283.75,45.4,46.6,49.0,47.0,1.8
284.0,46.2,46.9,47.8,47.0,0.8
284.25,45.7,46.6,48.7,47.0,1.5
284.5,46.3,46.5,48.0,46.9,0.9
284.75,46.4,46.5,48.5,47.1,1.2
285.0,46.7,45.8,48.5,47.0,1.4
285.25,45.8,46.2,48.4,46.8,1.4
285.5,46.1,45.3,48.3,46.6,1.6
285.75,46.3,46.0,48.4,46.9,1.3
286.0,46.9,46.1,49.1,47.4,1.6
286.25,46.4,46.0,48.3,46.9,1.2
286.5,46.1,45.9,48.6,46.9,1.5
286.75,46.7,45.0,48.1,46.6,1.5
287.0,46.3,45.2,47.8,46.5,1.3
287.25,46.3,45.2,48.9,46.8,1.9
287.5,45.7,44.7,48.6,46.3,2.0
287.75,46.4,44.9,49.0,46.8,2.1
288.0,46.3,45.2,48.3,46.6,1.5
288.25,45.6,45.4,48.5,46.5,1.7
288.5,46.7,45.1,48.3,46.7,1.6
288.75,46.4,45.3,48.8,46.8,1.8
289.0,46.3,45.1,48.1,46.5,1.5
289.25,46.5,45.1,48.9,46.8,1.9
289.5,46.3,45.6,48.6,46.8,1.6
289.75,45.9,46.1,48.0,46.7,1.2
290.0,46.4,45.5,48.7,46.8,1.6
290.25,46.9,45.2,49.0,47.0,1.9
290.5,45.6,46.4,47.8,46.6,1.1
290.75,46.0,45.9,48.8,46.9,1.7
291.0,46.1,45.8,49.3,47.0,1.9
291.25,45.9,46.2,47.8,46.6,1.0
291.5,45.5,46.2,49.6,47.1,2.2
291.75,46.1,46.6,49.0,47.2,1.6
292.0,46.0,46.2,48.2,46.8,1.2
292.25,46.7,46.5,48.1,47.1,0.9
292.5,46.0,46.4,48.7,47.0,1.5
292.75,46.0,46.8,47.5,46.8,0.8
293.0,45.7,46.5,48.5,46.9,1.5
293.25,45.7,46.3,48.1,46.7,1.2
293.5,45.4,47.0,47.6,46.7,1.1
293.75,45.0,47.4,48.6,47.0,1.8
294.0,45.6,47.0,47.5,46.7,1.0
294.25,45.0,46.7,47.5,46.4,1.3
294.5,44.7,46.6,47.9,46.4,1.6
294.75,44.9,46.3,47.3,46.2,1.2
295.0,44.2,47.0,47.3,46.2,1.7
295.25,44.7,46.1,47.9,46.2,1.6
295.5,44.8,45.8,48.0,46.2,1.6
295.75,45.6,46.2,48.4,46.7,1.4
296.0,45.1,47.0,47.1,46.4,1.1
296.25,44.2,46.4,48.0,46.2,1.9
296.5,45.4,45.8,47.5,46.3,1.1
296.75,44.7,46.0,47.5,46.1,1.4
297.0,44.7,45.9,48.3,46.3,1.8
297.25,44.7,47.0,48.5,46.7,1.9
297.5,45.3,46.6,47.3,46.4,1.0
297.75,44.2,46.0,46.9,45.7,1.4
298.0,44.7,45.8,47.9,46.1,1.6
298.25,44.6,46.4,47.3,46.1,1.4
298.5,44.6,46.6,46.7,46.0,1.2
298.75,44.2,47.1,46.9,46.1,1.6
299.0,44.6,46.5,46.4,45.8,1.1
299.25,44.4,47.1,47.1,46.2,1.6
299.5,43.7,46.8,46.2,45.6,1.6
299.75,44.0,46.5,46.8,45.7,1.5
300.0,43.5,46.6,46.4,45.5,1.7
300.25,43.6,46.7,46.1,45.5,1.6
300.5,43.8,46.9,46.2,45.6,1.6
300.75,43.0,47.3,46.2,45.5,2.2
301.0,43.6,46.9,46.6,45.7,1.8
301.25,42.9,47.1,46.5,45.5,2.3
301.5,43.4,47.0,46.5,45.6,1.9
301.75,43.8,47.1,46.4,45.8,1.7
302.0,43.4,47.1,46.7,45.7,2.0
302.25,43.9,47.1,46.5,45.8,1.7
302.5,44.1,47.2,47.0,46.1,1.7
302.75,44.5,47.2,46.4,46.0,1.4
303.0,43.7,47.3,45.7,45.5,1.8
303.25,43.8,47.1,46.3,45.7,1.7
303.5,44.5,46.6,45.8,45.6,1.1
303.75,43.9,46.3,46.2,45.5,1.4
304.0,43.5,46.7,45.7,45.3,1.6
304.25,43.8,46.9,45.9,45.6,1.6
304.5,44.0,46.7,45.8,45.5,1.4
304.75,43.9,47.0,46.0,45.6,1.6
305.0,43.6,46.3,45.6,45.2,1.4
305.25,43.5,45.9,44.4,44.6,1.2
305.5,43.9,47.3,45.6,45.6,1.7
305.75,43.5,45.8,44.9,44.8,1.2
306.0,44.2,46.2,45.2,45.2,1.0
306.25,44.1,46.8,45.5,45.5,1.4
306.5,44.1,46.9,44.9,45.3,1.4
306.75,43.4,46.4,45.0,44.9,1.5
307.0,43.6,46.7,45.5,45.3,1.6
307.25,44.0,45.8,45.0,44.9,0.9
307.5,43.9,46.6,45.0,45.2,1.4
307.75,44.1,45.9,43.8,44.6,1.1
308.0,43.6,45.9,44.7,44.7,1.1
308.25,43.7,46.0,44.0,44.6,1.2
308.5,43.8,45.2,43.8,44.2,0.8
308.75,42.9,45.5,44.1,44.2,1.3
309.0,43.7,45.5,43.2,44.1,1.2
309.25,43.7,45.8,43.9,44.5,1.2
309.5,43.5,46.0,43.7,44.4,1.4
309.75,43.8,45.6,42.8,44.1,1.4
310.0,42.7,44.8,43.5,43.7,1.1
310.25,43.5,45.2,42.7,43.8,1.3
310.5,43.9,45.4,43.2,44.1,1.1
310.75,43.4,45.5,42.9,43.9,1.4
311.0,43.4,45.2,42.5,43.7,1.4
311.25,43.8,45.1,42.6,43.8,1.2
311.5,43.7,45.9,42.2,43.9,1.9
311.75,43.0,45.0,42.2,43.4,1.4
312.0,43.6,45.1,42.9,43.9,1.2
312.25,44.0,45.2,42.3,43.8,1.5
312.5,43.3,45.6,41.6,43.5,2.0
312.75,43.7,45.3,42.0,43.7,1.7
313.0,43.4,45.4,41.7,43.5,1.9
313.25,43.8,45.6,42.3,43.9,1.7
313.5,42.8,44.9,42.1,43.2,1.5
313.75,43.6,45.4,42.0,43.7,1.7
314.0,42.7,45.2,42.6,43.5,1.4
314.25,43.7,45.4,42.3,43.8,1.6
314.5,42.7,44.3,42.2,43.1,1.1
314.75,43.5,44.9,42.1,43.5,1.4
315.0,42.6,45.2,41.8,43.2,1.8
315.25,42.8,45.1,42.2,43.4,1.5
315.5,42.4,45.7,42.3,43.5,1.9
315.75,42.5,45.3,41.9,43.2,1.8
316.0,42.2,44.5,42.1,42.9,1.4
316.25,42.9,45.6,42.0,43.5,1.8
316.5,42.1,44.8,41.6,42.8,1.7
316.75,42.4,45.2,42.2,43.3,1.7
317.0,42.4,45.0,42.0,43.1,1.6
317.25,42.6,45.2,41.8,43.2,1.7
317.5,42.2,44.2,42.1,42.8,1.2
317.75,41.7,44.7,41.9,42.8,1.6
318.0,42.1,44.8,42.0,42.9,1.6
318.25,41.8,44.3,41.8,42.6,1.5
318.5,41.9,44.5,41.7,42.7,1.6
318.75,42.1,44.4,41.8,42.8,1.4
319.0,41.6,44.3,41.8,42.6,1.5
319.25,41.8,44.2,42.0,42.7,1.3
319.5,41.5,44.2,41.1,42.3,1.7
319.75,41.6,44.0,42.1,42.5,1.3
320.0,42.0,44.4,41.1,42.5,1.7
320.25,41.0,44.0,40.9,41.9,1.8
320.5,41.1,44.8,41.2,42.4,2.1
320.75,41.2,44.5,41.6,42.4,1.8
321.0,41.5,44.1,40.6,42.1,1.9
321.25,40.7,43.7,40.8,41.7,1.7
321.5,40.5,44.5,41.5,42.2,2.0
321.75,40.6,44.3,41.3,42.0,2.0
322.0,41.1,44.0,40.8,41.9,1.8
322.25,40.0,43.9,41.2,41.7,2.0
322.5,40.4,44.7,41.5,42.2,2.2
322.75,40.6,43.6,41.0,41.8,1.6
323.0,40.5,44.5,40.9,42.0,2.2
323.25,41.0,44.7,40.3,42.0,2.3
323.5,40.8,43.7,40.8,41.8,1.7
323.75,40.4,44.5,41.0,42.0,2.2
324.0,41.3,43.7,40.9,42.0,1.6
324.25,40.7,44.3,41.0,42.0,2.0
324.5,40.3,44.4,40.6,41.8,2.3
324.75,40.6,44.4,40.7,41.9,2.1
325.0,40.3,44.1,40.4,41.6,2.2
325.25,40.7,44.2,41.0,42.0,1.9
325.5,40.4,44.2,41.0,41.9,2.1
325.75,40.6,43.9,40.8,41.8,1.9
326.0,40.3,43.3,40.4,41.3,1.7
326.25,40.5,43.3,40.6,41.4,1.6
326.5,40.7,43.1,40.7,41.5,1.4
326.75,40.7,43.7,41.5,42.0,1.5
327.0,40.1,43.6,41.1,41.6,1.8
327.25,40.5,42.8,41.5,41.6,1.2
327.5,40.4,42.9,41.0,41.4,1.3
327.75,40.6,42.6,41.1,41.4,1.0
328.0,40.5,43.1,41.6,41.7,1.3
328.25,41.0,42.7,41.4,41.7,0.9
328.5,41.3,42.3,42.4,42.0,0.6
328.75,40.8,42.7,42.1,41.9,1.0
329.0,41.0,42.6,41.7,41.8,0.8
329.25,41.2,43.0,42.1,42.1,0.9
329.5,40.8,42.1,42.1,41.7,0.8
329.75,41.5,42.4,41.8,41.9,0.4
330.0,42.1,42.1,41.7,42.0,0.3
330.25,41.1,42.7,42.3,42.1,0.8
330.5,41.6,42.1,41.7,41.8,0.3
330.75,41.8,41.8,42.9,42.2,0.6
331.0,41.9,41.4,42.4,41.9,0.5
331.25,42.2,42.1,42.9,42.4,0.4
331.5,41.8,41.8,42.8,42.1,0.6
331.75,42.0,41.7,42.2,41.9,0.2
332.0,42.5,43.0,42.7,42.7,0.3
332.25,42.1,42.6,42.5,42.4,0.3
332.5,42.2,42.6,42.5,42.4,0.2
332.75,42.3,42.1,43.0,42.5,0.5
333.0,43.6,42.5,42.6,42.9,0.6
333.25,43.0,43.0,42.6,42.9,0.2
333.5,42.3,42.9,42.7,42.7,0.3
333.75,43.9,42.5,41.9,42.8,1.0
334.0,43.0,42.6,41.8,42.5,0.6
334.25,42.9,42.4,42.6,42.6,0.2
334.5,43.2,42.3,42.0,42.5,0.6
334.75,42.8,42.6,42.2,42.6,0.3
335.0,43.3,42.5,41.8,42.6,0.7
335.25,43.1,42.6,41.5,42.4,0.8
335.5,42.9,41.6,41.1,41.9,1.0
335.75,43.5,42.4,42.1,42.7,0.7
336.0,44.0,42.1,41.0,42.4,1.5
336.25,43.7,42.4,40.8,42.3,1.5
336.5,43.4,42.2,40.7,42.1,1.4
336.75,43.0,42.8,40.8,42.2,1.2
337.0,43.4,41.9,40.4,41.9,1.5
337.25,43.7,42.1,40.6,42.2,1.5
337.5,43.5,41.7,40.4,41.9,1.5
337.75,44.2,41.9,40.7,42.3,1.8
338.0,42.8,41.4,40.3,41.5,1.3
338.25,42.7,41.4,40.2,41.4,1.2
338.5,42.5,40.9,40.2,41.2,1.2
338.75,43.0,41.1,40.4,41.5,1.3
339.0,42.9,41.5,40.0,41.5,1.5
339.25,42.5,41.3,39.8,41.2,1.4
339.5,42.2,40.5,39.8,40.8,1.3
339.75,42.0,41.0,39.3,40.8,1.4
340.0,42.0,40.8,40.3,41.0,0.9
340.25,41.0,40.6,39.5,40.4,0.8
340.5,40.9,40.5,39.4,40.3,0.8
340.75,42.0,40.5,39.1,40.5,1.5
341.0,41.7,40.2,39.2,40.3,1.3
341.25,41.8,40.4,39.2,40.4,1.3
341.5,41.5,40.3,39.0,40.3,1.2
341.75,41.7,40.3,39.3,40.4,1.2
342.0,41.0,40.3,38.8,40.0,1.1
342.25,41.2,40.5,39.4,40.4,0.9
342.5,41.6,39.6,38.9,40.1,1.4
342.75,41.6,40.0,38.5,40.0,1.5
343.0,40.8,39.2,38.6,39.5,1.1
343.25,41.4,39.4,38.8,39.9,1.3
343.5,40.8,39.6,38.9,39.8,0.9
343.75,41.3,39.6,38.5,39.8,1.4
344.0,41.2,39.4,38.7,39.8,1.3
344.25,41.4,40.1,38.8,40.1,1.3
344.5,41.3,39.4,38.3,39.7,1.5
344.75,40.9,39.8,38.1,39.6,1.4
345.0,42.0,39.2,38.2,39.8,2.0
345.25,40.8,39.2,38.1,39.4,1.4
345.5,41.2,38.6,38.5,39.4,1.5
345.75,41.3,39.0,38.2,39.5,1.6
346.0,41.4,38.9,38.4,39.6,1.6
346.25,41.2,39.1,38.7,39.7,1.3
346.5,41.0,38.9,38.5,39.5,1.3
346.75,41.6,39.1,37.9,39.5,1.9
347.0,41.7,38.4,38.0,39.4,2.0
347.25,41.4,39.0,38.0,39.5,1.8
347.5,40.9,38.3,38.0,39.0,1.6
347.75,40.6,38.4,38.4,39.1,1.3
348.0,40.9,38.8,38.0,39.2,1.5
348.25,40.8,38.6,38.4,39.2,1.3
348.5,40.4,38.8,37.8,39.0,1.3
348.75,40.6,38.0,38.3,39.0,1.4
349.0,40.4,38.8,37.9,39.1,1.3
349.25,40.4,38.4,37.8,38.9,1.4
349.5,40.3,38.6,37.8,38.9,1.2
349.75,40.4,38.3,37.8,38.9,1.4
350.0,40.4,39.0,37.7,39.0,1.3
350.25,40.0,38.4,38.1,38.8,1.0
350.5,39.2,39.1,37.8,38.7,0.8
350.75,39.1,38.8,37.5,38.5,0.9
351.0,38.8,38.4,37.3,38.2,0.8
351.25,39.3,38.7,37.5,38.5,0.9
351.5,38.8,38.6,37.2,38.2,0.9