File: 01_Data/Cellulose_Insulation/Cone/Cellulose_Insulation_Cone_HF75Scan_230615_R3.csv
Names,Time,Stack TC,Smoke TC,Exh Press,Smoke Comp,Smoke Meas,CO Meter,CO2 Meter,O2 Meter,Sample Mass,Ext Coeff,Start Test,Flame Verif
Chan Gain,,500,500,1,1,1,1,1,1,1,1,1.0,1.0
Offset,,0,0,0.245636,0,0,0,0,0,0,0,0.0,0.0
Gain,,1,1,25.011,13.8799,15.0761,1,1,1,1.00094,1.03834,1.0,1.0
Units,sec,C,C,Pa,%,%,%,%,%,g,/m,,
Baseline,,46.3627,49.9116,137.711,99.8289,99.86,0.00012566,0.0464711,20.9618,-445.642,-0.00283078,,
5,1,42.8156,44.9073,129.743,100.887,100.4,0.000605077,0.0549326,20.9528,79.565,0.0440858,1.0,0.0
10,2.25,42.7562,45.1478,113.762,100.902,102.49,0.000579489,0.0555162,20.9511,79.2347,-0.14221,0.0,1.0
15,3.5,43.5837,49.649,120.584,100.896,102.437,0.000513651,0.0554463,20.9495,78.9144,-0.138082,0.0,1.0
20,4.75,45.8862,54.0417,114.003,100.92,102.023,0.000441794,0.0548229,20.9486,78.494,-0.0990075,0.0,1.0
25,6,48.277,58.1092,118.595,100.938,101.835,0.000425176,0.0540153,20.948,78.3439,-0.0805893,0.0,1.0
30,7.25,48.4659,58.666,115.148,100.932,100.717,0.000474418,0.055263,20.9477,78.0136,0.0194247,0.0,1.0
35,8.5,48.5373,61.0597,116.519,100.919,101.229,0.000571445,0.0758725,20.9475,77.7833,-0.027952,0.0,1.0
40,9.75,51.72,64.9488,115.796,100.925,101.416,0.000737219,0.152013,20.9474,77.5832,-0.0441737,0.0,0.0
45,11,52.4232,66.4871,120.975,100.941,100.803,0.00107095,0.252234,20.9436,77.3629,0.0124086,0.0,0.0
50,12.25,53.6873,68.1722,118.54,100.938,101.984,0.00152774,0.365961,20.9056,77.0927,-0.0939536,0.0,0.0
55,13.5,54.5093,69.4369,121.223,100.913,101.401,0.00200147,0.456823,20.8111,76.8725,-0.0438775,0.0,0.0
60,14.75,55.1053,69.9193,121.237,100.928,101.372,0.00248575,0.513192,20.6717,76.7824,-0.0399768,0.0,0.0
65,16,55.9671,70.6585,121.104,100.935,101.835,0.00291166,0.543729,20.5659,76.6022,-0.0808188,0.0,0.0
70,17.25,56.1361,71.4051,123.627,100.923,101.923,0.00322235,0.549569,20.4826,76.4221,-0.0898636,0.0,0.0
75,18.5,57.0832,71.9249,121.116,100.925,102.21,0.00353091,0.5355,20.4305,76.2819,-0.115292,0.0,0.0
80,19.75,57.415,71.619,122.992,100.936,101.7,0.00369822,0.51621,20.3996,76.1518,-0.0686749,0.0,0.0
85,21,57.9235,72.32,123.045,100.938,101.977,0.00372297,0.495496,20.3947,75.9116,-0.0932554,0.0,0.0
90,22.25,58.1671,72.9336,126.294,100.924,102.207,0.00362185,0.475293,20.408,75.7614,-0.115041,0.0,0.0
95,23.5,58.4186,72.3972,129.219,100.915,102.416,0.00349898,0.455696,20.425,75.5612,-0.134442,0.0,0.0
100,24.75,58.7012,71.7558,127.407,100.934,101.908,0.00329183,0.438515,20.4435,75.5312,-0.0874746,0.0,0.0
105,26,58.9431,72.4588,123.977,100.921,102.31,0.00305281,0.421733,20.463,75.351,-0.124491,0.0,0.0
110,27.25,59.53,72.6867,124.677,100.922,102.267,0.00287735,0.405289,20.4849,75.1609,-0.120563,0.0,0.0
115,28.5,59.657,72.6368,129.324,100.913,102.041,0.00273806,0.389896,20.507,75.0808,-0.101224,0.0,0.0
120,29.75,59.5991,71.9024,126.752,100.919,101.89,0.00261082,0.375657,20.5297,74.9306,-0.0872877,0.0,0.0
125,31,58.3306,71.5697,127.958,100.933,102.211,0.00247155,0.36332,20.5493,74.8606,-0.114606,0.0,0.0
130,32.25,59.5633,72.0122,124.718,100.918,102.436,0.00230986,0.351239,20.5665,74.6104,-0.135971,0.0,0.0
135,33.5,59.7709,71.7031,128.629,100.917,102.236,0.00211983,0.339487,20.5829,74.5303,-0.118274,0.0,0.0
140,34.75,59.7737,71.1507,131.534,100.935,102.021,0.00196197,0.329497,20.5982,74.4302,-0.0974703,0.0,0.0
145,36,59.5616,70.3622,129.104,100.913,102.642,0.00188461,0.321382,20.612,74.4302,-0.154742,0.0,0.0
150,37.25,59.9144,70.7459,126.192,100.928,102.54,0.00186923,0.313157,20.6256,74.24,-0.144333,0.0,0.0
155,38.5,60.0617,70.9084,126.645,100.92,102.282,0.00196087,0.305062,20.6361,74.0498,-0.122106,0.0,0.0
160,39.75,60.2012,70.3419,126.492,100.921,102.179,0.00205343,0.296897,20.6436,73.8697,-0.112807,0.0,0.0
165,41,59.8804,69.8082,129.53,100.937,102.651,0.00213603,0.287368,20.6517,73.8396,-0.15338,0.0,0.0
170,42.25,60.2853,69.7938,129.326,100.903,102.679,0.00217391,0.280048,20.6646,73.7395,-0.158887,0.0,0.0
175,43.5,59.9897,70.1345,131.666,100.914,102.296,0.00217321,0.275411,20.6768,73.6294,-0.123871,0.0,0.0
180,44.75,60.0907,69.6471,125.989,100.917,102.461,0.00217649,0.27249,20.6869,73.5794,-0.138295,0.0,0.0
185,46,59.9425,68.4411,127.533,100.914,102.262,0.00224831,0.270348,20.695,73.4793,-0.120801,0.0,0.0
190,47.25,59.8598,69.147,129.68,100.914,102.156,0.00232109,0.267361,20.7004,73.3391,-0.111408,0.0,0.0
195,48.5,59.7199,69.262,128.271,100.941,101.941,0.00233607,0.26395,20.7034,73.219,-0.0897814,0.0,0.0
200,49.75,60.116,69.1205,130.599,100.932,101.831,0.00227683,0.258802,20.7076,73.129,-0.0807547,0.0,0.0
205,51,59.8292,69.186,129.061,100.907,102.077,0.00216236,0.253888,20.7132,73.0088,-0.105,0.0,0.0
210,52.25,60.033,68.8998,131.174,100.917,101.814,0.00205433,0.249818,20.7175,72.9288,-0.0806107,0.0,0.0
215,53.5,59.5622,68.2705,129.882,100.925,101.994,0.00199803,0.246779,20.722,72.8387,-0.0959258,0.0,0.0
220,54.75,60.0513,68.7046,125.45,100.921,101.843,0.00199572,0.244355,20.7273,72.7586,-0.082821,0.0,0.0
225,56,59.9162,68.4085,129.061,100.902,101.846,0.00201148,0.241797,20.7319,72.6785,-0.084868,0.0,0.0
230,57.25,59.422,67.8794,130.725,100.913,102.642,0.00201733,0.238835,20.7351,72.5584,-0.15474,0.0,0.0
235,58.5,59.1302,67.7904,128.887,100.916,102.144,0.00199109,0.235745,20.7377,72.4984,-0.11011,0.0,0.0
240,59.75,59.6469,68.1956,128.104,100.914,102.491,0.001943,0.231703,20.7401,72.3582,-0.141186,0.0,0.0
245,61,59.5234,67.9511,128.433,100.906,102.159,0.00193475,0.227631,20.7428,72.2782,-0.11246,0.0,0.0
250,62.25,59.9089,67.401,128.74,100.919,101.85,0.00195934,0.224747,20.7458,72.1981,-0.0836297,0.0,0.0
255,63.5,59.9051,66.3481,127.207,100.915,101.907,0.00198913,0.223224,20.7506,72.098,-0.0891125,0.0,0.0
260,64.75,59.3623,67.2669,129.328,100.915,101.857,0.00201389,0.222076,20.7542,71.9278,-0.0845913,0.0,0.0
265,66,59.4861,67.2771,127.881,100.908,102.057,0.0020223,0.220818,20.7563,71.8578,-0.103078,0.0,0.0
270,67.25,60.0186,67.25,130.783,100.917,101.678,0.00200593,0.219598,20.758,71.7777,-0.0683817,0.0,0.0
275,68.5,59.7332,66.5992,134.114,100.903,102.094,0.00198193,0.218095,20.7595,71.6576,-0.106901,0.0,0.0
280,69.75,58.3501,66.2636,131.507,100.91,102.111,0.00198437,0.216933,20.7604,71.5475,-0.10777,0.0,0.0
285,71,59.2984,66.6046,131.621,100.913,101.671,0.00204589,0.2165,20.7626,71.5174,-0.0681864,0.0,0.0
290,72.25,59.3528,66.5853,130.851,100.93,101.867,0.00213311,0.216063,20.7641,71.3573,-0.0841162,0.0,0.0
295,73.5,59.3617,65.9982,129.988,100.914,102.264,0.00220937,0.215341,20.765,71.2472,-0.121003,0.0,0.0
300,74.75,59.3672,65.8257,128.254,100.909,102.519,0.00227514,0.214315,20.7664,71.2071,-0.144138,0.0,0.0
305,76,59.2995,66.2804,129.731,100.917,102.198,0.00232956,0.212715,20.7673,71.087,-0.114873,0.0,0.0
310,77.25,59.6353,66.1796,129.819,100.918,102.02,0.00238096,0.210534,20.7681,71.007,-0.0988763,0.0,0.0
315,78.5,59.2115,66.7744,131.824,100.903,102.311,0.00240788,0.208028,20.7697,70.9669,-0.126213,0.0,0.0
320,79.75,59.0975,66.5516,126.696,100.905,102.186,0.00241925,0.206491,20.7718,70.8868,-0.114917,0.0,0.0
325,81,59.3141,66.4705,133.301,100.919,101.875,0.00236114,0.206311,20.7746,70.8268,-0.0858895,0.0,0.0
330,82.25,59.1341,66.4824,129.749,100.922,101.844,0.00228932,0.20663,20.777,70.7667,-0.082907,0.0,0.0
335,83.5,59.9187,66.3576,132.279,100.904,102.197,0.00222336,0.206503,20.7783,70.6666,-0.115977,0.0,0.0
340,84.75,59.6012,66.6446,135.168,100.906,101.85,0.00217447,0.206168,20.7782,70.5866,-0.0848943,0.0,0.0
345,86,57.9265,65.3192,128.719,100.919,101.792,0.00215842,0.206025,20.7781,70.5365,-0.0784031,0.0,0.0
350,87.25,58.8829,66.4398,133.388,100.91,102.164,0.00217716,0.205737,20.7784,70.4064,-0.11253,0.0,0.0
355,88.5,59.4159,66.466,127.311,100.901,101.723,0.00224287,0.204695,20.7789,70.3063,-0.0739101,0.0,0.0
360,89.75,59.4821,66.535,128.872,100.918,102.443,0.00231902,0.203364,20.7799,70.2162,-0.136626,0.0,0.0
365,91,59.1908,65.9426,126.369,100.907,102.154,0.00241929,0.202241,20.7809,70.1461,-0.111854,0.0,0.0
370,92.25,59.0478,66.0607,128.865,100.906,102.569,0.00253182,0.200544,20.7826,70.0661,-0.148857,0.0,0.0
375,93.5,59.1144,65.9828,130.129,100.885,102.225,0.00261644,0.199038,20.784,70.006,-0.120118,0.0,0.0
380,94.75,58.9843,66.0358,130.288,100.882,101.974,0.00263656,0.197553,20.7854,69.9459,-0.0980169,0.0,0.0
385,96,58.9315,64.7717,130.107,100.881,101.857,0.00259378,0.195922,20.7874,69.8358,-0.0876883,0.0,0.0
390,97.25,58.5842,65.4458,128.579,100.866,101.815,0.00254034,0.194518,20.7887,69.7658,-0.0853201,0.0,0.0
395,98.5,59.0845,66.0769,131.456,100.852,102.158,0.00255129,0.19304,20.7906,69.7357,-0.117194,0.0,0.0
400,99.75,58.651,65.9379,131.688,100.841,101.958,0.00262882,0.192103,20.7925,69.6457,-0.100289,0.0,0.0
405,101,59.1714,65.8956,132.618,100.826,101.92,0.00272595,0.191157,20.7936,69.5556,-0.0982578,0.0,0.0
410,102.25,59.2294,65.5323,130.528,100.801,102,0.00282067,0.18995,20.7952,69.4755,-0.107702,0.0,0.0
415,103.5,58.9472,65.7591,129.962,100.78,101.553,0.00285914,0.188845,20.7962,69.3954,-0.0696005,0.0,0.0
420,104.75,58.526,66.04,132.762,100.791,102.707,0.00284884,0.187967,20.7974,69.3554,-0.171512,0.0,0.0
425,106,59.2398,65.9035,130.104,100.76,101.684,0.00280041,0.187149,20.7992,69.2253,-0.0831503,0.0,0.0
430,107.25,59.1582,65.1449,129.026,100.737,101.805,0.00275301,0.186301,20.8004,69.1952,-0.0960909,0.0,0.0
435,108.5,58.5609,65.2654,129.27,100.732,101.764,0.00272728,0.185586,20.8011,69.1552,-0.0928073,0.0,0.0
440,109.75,58.8178,65.4372,129.993,100.7,101.737,0.00271002,0.184863,20.802,69.0551,-0.0933684,0.0,0.0
445,111,59.1542,65.6123,130.456,100.664,101.687,0.00269322,0.184135,20.8038,68.895,-0.0920927,0.0,0.0
450,112.25,59.1612,65.6222,128.49,100.633,101.695,0.00266476,0.182833,20.8049,68.8549,-0.0956334,0.0,0.0
455,113.5,59.0628,65.4844,130.931,100.601,102.152,0.00260238,0.181422,20.8062,68.7648,-0.139374,0.0,0.0
460,114.75,57.5496,65.2025,130.944,100.58,101.699,0.00251532,0.180456,20.8072,68.6948,-0.100717,0.0,0.0
465,116,58.7126,65.5093,130.425,100.539,101.375,0.00245941,0.180826,20.8085,68.6347,-0.0753842,0.0,0.0
470,117.25,58.5245,65.3655,132.592,100.511,102.025,0.00246608,0.181774,20.8096,68.5747,-0.136182,0.0,0.0
475,118.5,58.5935,64.5322,131.776,100.48,101.934,0.0025594,0.182089,20.8102,68.5346,-0.130807,0.0,0.0
480,119.75,58.7084,64.6834,133.675,100.441,101.684,0.00263506,0.181898,20.8087,68.4245,-0.11199,0.0,0.0
485,121,58.276,65.0642,130.801,100.394,101.571,0.00263964,0.181044,20.8078,68.3945,-0.106149,0.0,0.0
490,122.25,58.6253,65.2443,129.339,100.381,101.52,0.00259365,0.179332,20.8072,68.3545,-0.102759,0.0,0.0
495,123.5,58.4118,64.6028,130.775,100.366,101.301,0.00249683,0.177804,20.8069,68.2443,-0.0844735,0.0,0.0
500,124.75,56.8009,64.7838,128.227,100.321,101.341,0.00244647,0.177001,20.8091,68.2143,-0.092147,0.0,0.0
505,126,58.329,64.2184,132.34,100.29,101.214,0.00247209,0.176659,20.8114,68.1443,-0.0835765,0.0,0.0
510,127.25,58.2845,64.9876,133.002,100.273,101.362,0.00257303,0.176308,20.8132,67.9741,-0.0983571,0.0,0.0
515,128.5,58.1864,64.6037,132.759,100.277,101.724,0.00274914,0.17606,20.8142,68.1342,-0.130528,0.0,0.0
520,129.75,58.6622,64.437,128.782,100.242,101.214,0.002883,0.175782,20.8148,67.9341,-0.0878862,0.0,0.0
525,131,58.1518,64.6237,128.602,100.23,101.643,0.00294177,0.175352,20.8152,67.7539,-0.127588,0.0,0.0
530,132.25,58.0423,64.0301,128.525,100.22,101.321,0.00295506,0.174823,20.8154,67.7139,-0.0995678,0.0,0.0
535,133.5,58.2818,64.5824,131.556,100.218,101.471,0.00296488,0.174231,20.8157,67.5537,-0.113195,0.0,0.0
540,134.75,58.4471,62.8476,132.464,100.177,101.159,0.00299247,0.174144,20.8164,67.5737,-0.0888039,0.0,0.0
545,136,57.3515,64.0594,136.701,100.147,101.12,0.00303309,0.173962,20.8168,67.5337,-0.0880605,0.0,0.0
550,137.25,58.4428,64.0373,130.849,100.125,101.301,0.0030503,0.17357,20.8171,67.3935,-0.106375,0.0,0.0
555,138.5,58.568,64.3772,129.432,100.112,101.411,0.00305239,0.1731,20.8172,67.2935,-0.11741,0.0,0.0
560,139.75,58.3626,64.149,129.49,100.081,101.798,0.00308721,0.172312,20.8182,67.3035,-0.15491,0.0,0.0
565,141,57.7257,63.9607,131.905,100.05,101.406,0.00314941,0.171221,20.8188,67.2534,-0.122625,0.0,0.0
570,142.25,57.9855,64.4864,131.444,100.036,101.37,0.00320798,0.169741,20.8194,67.1934,-0.120671,0.0,0.0
575,143.5,58.3592,64.6818,132.492,99.9991,100.896,0.00322595,0.168362,20.8203,67.1033,-0.081308,0.0,0.0
580,144.75,58.1549,64.0817,127.791,99.9686,101.091,0.00319498,0.167333,20.8216,67.0732,-0.10168,0.0,0.0
585,146,58.2213,64.6047,128.101,99.9529,101.313,0.00318774,0.16714,20.8225,66.9631,-0.123067,0.0,0.0
590,147.25,57.5484,63.7638,133.065,99.9525,101.292,0.00322227,0.167575,20.8233,66.9131,-0.121243,0.0,0.0
595,148.5,57.9517,64.693,132.616,99.9369,100.706,0.00328577,0.167984,20.8237,66.8931,-0.0698111,0.0,0.0
600,149.75,58.2207,64.4232,131.035,99.9013,100.757,0.00333017,0.168068,20.824,66.823,-0.0777142,0.0,0.0
605,151,57.9822,64.4878,131.273,99.8797,101.312,0.00329711,0.168131,20.8241,66.773,-0.129664,0.0,0.0
610,152.25,58.0604,64.3209,131.328,99.8759,100.669,0.00324246,0.168006,20.8242,66.6929,-0.0720007,0.0,0.0
615,153.5,58.3226,64.3067,130.502,99.8343,100.854,0.00324147,0.167635,20.8243,66.6428,-0.0925895,0.0,0.0
620,154.75,58.0923,64.1391,133.227,99.811,100.77,0.00325945,0.166843,20.8243,66.5427,-0.087109,0.0,0.0
625,156,57.9532,64.369,131.839,99.7992,100.778,0.00325245,0.165687,20.8243,66.4627,-0.0889393,0.0,0.0
630,157.25,58.33,63.6005,128.53,99.7729,100.674,0.0031893,0.164576,20.8244,66.3426,-0.0818508,0.0,0.0
635,158.5,57.8526,63.837,132.791,99.7496,101.363,0.00303335,0.164346,20.8252,66.2625,-0.146162,0.0,0.0
640,159.75,58.0231,63.9447,131.755,99.7365,100.55,0.00288242,0.164502,20.8258,66.3025,-0.0740141,0.0,0.0
645,161,57.8704,63.3225,133.01,99.7327,100.707,0.00276748,0.164406,20.8262,66.2124,-0.0885221,0.0,0.0
650,162.25,57.5599,63.7208,132.446,99.7399,100.877,0.00269224,0.164119,20.8264,66.1524,-0.103247,0.0,0.0
655,163.5,57.0286,62.8196,131.858,99.6963,100.585,0.0026364,0.162893,20.8265,66.0222,-0.080815,0.0,0.0
660,164.75,57.8971,63.7382,129.889,99.6891,100.92,0.00261473,0.161505,20.8266,66.0222,-0.111794,0.0,0.0
665,166,57.7211,63.3916,131.931,99.6819,100.671,0.00265831,0.160974,20.8266,65.9622,-0.0899185,0.0,0.0
670,167.25,57.8609,63.4735,132.759,99.6848,100.762,0.00276496,0.161119,20.8273,65.9322,-0.0979269,0.0,0.0
675,168.5,57.7887,63.2293,129.048,99.6785,100.546,0.00293936,0.160934,20.828,65.8521,-0.0788987,0.0,0.0
680,169.75,57.1649,63.1396,128.747,99.703,100.899,0.00313013,0.160595,20.8294,65.722,-0.108648,0.0,0.0
685,171,57.5487,63.2641,131.396,99.6933,100.775,0.0032793,0.160285,20.8302,65.712,-0.0983182,0.0,0.0
690,172.25,57.7394,63.6959,129.363,99.7094,100.387,0.00335129,0.15992,20.8306,65.712,-0.0617246,0.0,0.0
695,173.5,57.7425,63.4528,133.737,99.6984,100.941,0.00337234,0.159044,20.8309,65.702,-0.112853,0.0,0.0
700,174.75,57.2043,63.0213,131.076,99.7263,100.432,0.00336801,0.15837,20.8311,65.6019,-0.064184,0.0,0.0
705,176,57.1414,63.6437,129.448,99.7128,100.618,0.00336434,0.158115,20.8316,65.5618,-0.0823466,0.0,0.0
710,177.25,57.221,63.4669,129.613,99.728,100.878,0.0033563,0.158323,20.8325,65.5418,-0.104413,0.0,0.0
715,178.5,57.6848,63.6134,133.224,99.7344,100.709,0.00333216,0.158844,20.8329,65.4617,-0.0885336,0.0,0.0
720,179.75,57.9615,63.1966,126.997,99.7598,100.877,0.0033198,0.159567,20.8332,65.4017,-0.101471,0.0,0.0
725,181,57.9595,63.3052,132.327,99.7581,100.774,0.00333485,0.159591,20.8334,65.3216,-0.0923159,0.0,0.0
730,182.25,57.8995,63.6522,131.25,99.7733,100.868,0.00337187,0.158979,20.8335,65.2315,-0.0994032,0.0,0.0
735,183.5,57.5294,63.3778,134.141,99.7924,100.38,0.00338817,0.158024,20.8336,65.1815,-0.0534765,0.0,0.0
740,184.75,57.4747,63.0372,130.061,99.806,101.067,0.00333499,0.157458,20.8338,65.1614,-0.114356,0.0,0.0
745,186,56.5963,62.9406,129.675,99.8229,100.904,0.003267,0.157547,20.8341,65.1114,-0.0981195,0.0,0.0
750,187.25,56.6464,63.8126,131.789,99.8246,100.844,0.00323444,0.157134,20.8349,65.0914,-0.0925226,0.0,0.0
755,188.5,58.0955,63.9788,130.021,99.842,100.839,0.00324183,0.156231,20.8357,65.0313,-0.0904816,0.0,0.0
760,189.75,57.9777,63.873,127.786,99.8631,100.88,0.00328281,0.155409,20.8362,64.9613,-0.0922473,0.0,0.0
765,191,57.5311,63.4912,130.514,99.8572,101.107,0.00333648,0.154397,20.8364,64.8912,-0.113287,0.0,0.0
770,192.25,57.24,63.7773,136.646,99.8487,100.945,0.0033674,0.153766,20.8374,64.8211,-0.099457,0.0,0.0
775,193.5,58.0861,63.9032,127.884,99.9025,100.77,0.00336592,0.154183,20.8381,64.701,-0.0787207,0.0,0.0
780,194.75,57.6865,63.6876,128.151,99.8958,100.958,0.00334879,0.155087,20.8385,64.661,-0.0963323,0.0,0.0
785,196,57.8958,63.2061,131.62,99.8839,100.834,0.00333547,0.156273,20.8384,64.5909,-0.0862408,0.0,0.0
790,197.25,57.7615,63.6693,135.175,99.8928,100.955,0.00330714,0.157108,20.8379,64.5809,-0.0963532,0.0,0.0
795,198.5,57.2925,63.4938,127.129,99.9114,100.863,0.00327005,0.157098,20.8367,64.5108,-0.0863071,0.0,0.0
800,199.75,57.677,63.2785,135.443,99.9097,100.995,0.00320777,0.156783,20.8354,64.4308,-0.0984197,0.0,0.0
805,201,58.1631,63.3474,132.734,99.9157,100.828,0.0031622,0.156579,20.8347,64.4207,-0.0827624,0.0,0.0
810,202.25,57.5611,62.954,130.573,99.9186,100.699,0.00314139,0.156202,20.8343,64.3807,-0.0708895,0.0,0.0
815,203.5,57.0507,63.1055,133.193,99.9275,101.014,0.00316679,0.155674,20.8346,64.3006,-0.0985399,0.0,0.0
820,204.75,57.3089,63.0651,132.452,99.9059,100.902,0.00317371,0.155141,20.8354,64.2506,-0.0903396,0.0,0.0
825,206,57.5364,62.9709,131.054,99.9127,100.955,0.0031455,0.154793,20.8364,64.2306,-0.0944972,0.0,0.0
830,207.25,57.0578,62.4667,133.252,99.944,100.596,0.00305377,0.154349,20.8374,64.1905,-0.0592467,0.0,0.0
835,208.5,56.8149,63.1258,130.203,99.9339,101.014,0.0029625,0.153523,20.838,64.1505,-0.0978781,0.0,0.0
840,209.75,57.3609,63.1211,131.085,99.9165,100.684,0.00290506,0.153448,20.8384,64.0504,-0.0696667,0.0,0.0
845,211,57.6112,62.8148,129.667,99.9119,101.387,0.00291272,0.15391,20.8386,64.0304,-0.13351,0.0,0.0
850,212.25,57.5784,61.5653,131.371,99.9136,100.664,0.00295618,0.15388,20.8387,64.0003,-0.0681897,0.0,0.0
855,213.5,56.9705,62.1585,128.345,99.9042,100.902,0.00304439,0.153454,20.8388,63.9103,-0.0905353,0.0,0.0
860,214.75,56.8571,62.9139,127.463,99.889,100.87,0.00314074,0.153009,20.8389,63.7801,-0.0890599,0.0,0.0
865,216,58.1075,62.3267,129.674,99.8801,101.414,0.00319959,0.15299,20.8389,63.7601,-0.138804,0.0,0.0
870,217.25,57.4045,63.0387,131.128,99.8873,100.982,0.003185,0.153412,20.8389,63.7101,-0.0993038,0.0,0.0
875,218.5,57.5909,62.4459,130.531,99.8864,101.203,0.00312466,0.153631,20.8389,63.63,-0.119278,0.0,0.0
880,219.75,57.603,62.8989,131.741,99.8615,100.823,0.00307755,0.152877,20.8389,63.63,-0.0872909,0.0,0.0
885,221,57.2488,62.9351,130.51,99.8432,100.801,0.00303818,0.151751,20.8389,63.63,-0.0869155,0.0,0.0
890,222.25,57.5187,63.0992,133.885,99.8458,100.753,0.00299383,0.150496,20.8397,63.5799,-0.0824003,0.0,0.0
895,223.5,57.4422,62.3726,128.852,99.8204,101.154,0.00294526,0.149677,20.8404,63.5499,-0.120916,0.0,0.0
900,224.75,57.3327,62.6958,131.672,99.8068,101.046,0.00288132,0.149626,20.8417,63.4899,-0.112371,0.0,0.0
905,226,57.7522,62.9194,127.574,99.8119,100.83,0.00282717,0.149666,20.8425,63.4698,-0.0924777,0.0,0.0
910,227.25,57.5886,63.0262,133.588,99.8123,100.825,0.00278356,0.149717,20.8429,63.4498,-0.0919813,0.0,0.0
915,228.5,57.5896,62.4817,130.747,99.7822,100.925,0.00277308,0.150165,20.8432,63.3698,-0.1037,0.0,0.0
920,229.75,57.4326,62.6578,130.93,99.775,100.874,0.00279586,0.150643,20.8431,63.3197,-0.0997879,0.0,0.0
925,231,56.7125,62.9528,128.06,99.7776,101.094,0.00284458,0.150889,20.8424,63.2596,-0.119392,0.0,0.0
930,232.25,57.2613,62.9144,130.801,99.7581,100.773,0.00292052,0.150799,20.842,63.2096,-0.0922331,0.0,0.0
935,233.5,57.5134,63.1263,131.562,99.7543,100.916,0.00303183,0.150142,20.8417,63.1896,-0.105504,0.0,0.0
940,234.75,57.7981,62.5177,131.497,99.7517,100.508,0.00312105,0.149148,20.8417,63.0995,-0.0688281,0.0,0.0
945,236,56.517,63.0566,126.818,99.7522,100.836,0.00314132,0.148474,20.8425,63.0494,-0.0984274,0.0,0.0
950,237.25,56.7911,62.9968,131.866,99.7437,100.826,0.00311023,0.148351,20.8434,63.0494,-0.0982863,0.0,0.0
955,238.5,57.6187,63.0029,129.968,99.728,100.749,0.00307829,0.148139,20.8444,62.9594,-0.0927327,0.0,0.0
960,239.75,56.9191,62.9897,128.999,99.7301,100.421,0.00310817,0.147601,20.845,62.9293,-0.0628342,0.0,0.0
965,241,57.2879,62.4092,131.627,99.739,100.563,0.00318966,0.147033,20.8454,62.8693,-0.0749074,0.0,0.0
970,242.25,56.882,63.0723,129.593,99.7284,100.621,0.0033311,0.146441,20.8456,62.8693,-0.0811239,0.0,0.0
975,243.5,57.1004,63.1663,133.189,99.72,100.592,0.00345508,0.146374,20.8457,62.8292,-0.0792727,0.0,0.0
980,244.75,57.0944,62.8003,128.197,99.7251,100.611,0.00350768,0.146551,20.8458,62.7792,-0.080517,0.0,0.0
985,246,57.2205,62.1474,129.858,99.7225,101.032,0.00349594,0.146453,20.8458,62.6591,-0.118822,0.0,0.0
990,247.25,56.5498,62.3907,135.214,99.7162,100.571,0.00342243,0.145857,20.8459,62.6891,-0.0777044,0.0,0.0
995,248.5,57.4382,62.422,133.037,99.7187,100.919,0.00335531,0.144989,20.8462,62.6391,-0.109003,0.0,0.0
1000,249.75,57.5889,62.6727,131.276,99.7234,100.225,0.00330124,0.143986,20.8464,62.539,-0.0456582,0.0,0.0
1005,251,57.1738,62.5657,133.085,99.7191,100.709,0.0032789,0.142956,20.8467,62.539,-0.0899673,0.0,0.0
1010,252.25,57.4576,62.384,131.279,99.7259,100.939,0.00320973,0.14235,20.8477,62.529,-0.110172,0.0,0.0
1015,253.5,57.1124,62.8511,135.548,99.72,100.332,0.00310775,0.142545,20.8494,62.4389,-0.0557469,0.0,0.0
1020,254.75,57.62,62.8232,131.325,99.7378,100.753,0.00303032,0.1429,20.8504,62.4088,-0.0922594,0.0,0.0
1025,256,57.1476,62.6901,132.328,99.7479,100.796,0.00301491,0.142948,20.851,62.3688,-0.0951983,0.0,0.0
1030,257.25,57.0639,62.0079,130.519,99.7407,100.469,0.00304057,0.142716,20.8513,62.3288,-0.0662476,0.0,0.0
1035,258.5,57.0675,62.5173,129.431,99.7458,100.698,0.00306866,0.142468,20.8514,62.3088,-0.0865735,0.0,0.0
1040,259.75,57.4815,62.8465,133.807,99.7589,101.206,0.0030839,0.142288,20.8513,62.2587,-0.131202,0.0,0.0
1045,261,57.4585,62.558,132.472,99.7653,100.672,0.00309785,0.141573,20.8512,62.2387,-0.0824222,0.0,0.0
1050,262.25,57.3851,62.4506,130.827,99.7759,100.693,0.00310345,0.140559,20.8511,62.1786,-0.0833278,0.0,0.0
1055,263.5,56.701,62.4239,133.566,99.7852,100.591,0.00308864,0.139428,20.8511,62.1386,-0.0732337,0.0,0.0
1060,264.75,56.891,62.5821,130.036,99.8021,100.375,0.00305234,0.138585,20.8518,62.0685,-0.0521698,0.0,0.0
1065,266,57.0915,62.7106,133.433,99.8009,100.439,0.00300464,0.138785,20.8527,62.0185,-0.0580446,0.0,0.0
1070,267.25,56.7666,62.6465,129.507,99.8153,100.818,0.00296497,0.139537,20.8539,61.9985,-0.0910041,0.0,0.0
1075,268.5,57.0188,62.4306,132.299,99.8479,100.539,0.00297381,0.140223,20.8546,61.9484,-0.0628463,0.0,0.0
1080,269.75,56.6807,62.328,133.699,99.8479,100.674,0.00302355,0.140601,20.855,61.9084,-0.0750919,0.0,0.0
1085,271,56.8804,62.5445,132.744,99.8657,100.686,0.00308088,0.140609,20.855,61.8984,-0.0745516,0.0,0.0
1090,272.25,56.6173,62.604,131.761,99.8691,100.931,0.00311222,0.139984,20.8543,61.8683,-0.0963164,0.0,0.0
1095,273.5,57.0872,61.721,129.039,99.9051,100.881,0.00312181,0.139573,20.8539,61.8183,-0.0885062,0.0,0.0
1100,274.75,56.2944,62.1156,134.047,99.9123,100.699,0.00314553,0.139396,20.8538,61.7682,-0.0714268,0.0,0.0
1105,276,56.4232,62.2484,131.367,99.9352,101.067,0.00319886,0.138779,20.8537,61.7182,-0.102614,0.0,0.0
1110,277.25,56.8398,62.6501,130.493,99.9292,101.212,0.00323487,0.138141,20.8536,61.6782,-0.116207,0.0,0.0
1115,278.5,57.1123,62.5368,136.045,99.9839,100.965,0.00321625,0.137922,20.8536,61.6782,-0.0889667,0.0,0.0
1120,279.75,57.1068,61.5237,127.539,99.9818,101.633,0.0031455,0.137982,20.8544,61.6581,-0.149185,0.0,0.0
1125,281,57.1018,62.6031,132.043,99.997,101.026,0.00308026,0.138025,20.8547,61.5881,-0.0932477,0.0,0.0
1130,282.25,57.1721,62.5094,130.17,100.024,100.726,0.00304715,0.138018,20.8548,61.5681,-0.063651,0.0,0.0
1135,283.5,56.9657,62.4291,132.227,100.058,100.883,0.00304362,0.138168,20.8549,61.518,-0.074822,0.0,0.0
1140,284.75,56.9888,62.253,133.111,100.061,100.88,0.00307053,0.13826,20.8549,61.498,-0.0742621,0.0,0.0
1145,286,57.017,62.2723,131.323,100.086,101.475,0.00311441,0.13758,20.8549,61.4479,-0.125464,0.0,0.0
1150,287.25,56.9278,62.3811,139.345,100.123,100.983,0.00318785,0.136584,20.855,61.4279,-0.0778993,0.0,0.0
1155,288.5,57.0342,62.1492,131.753,100.127,100.883,0.00328307,0.135824,20.855,61.4179,-0.068501,0.0,0.0
1160,289.75,57.1916,62.3371,132.32,100.147,100.765,0.0033852,0.135368,20.8558,61.3679,-0.0560501,0.0,0.0
1165,291,56.7701,62.2592,130.864,100.173,100.837,0.00342738,0.135003,20.8566,61.3078,-0.0601856,0.0,0.0
1170,292.25,55.911,62.6706,130.988,100.212,100.865,0.00341595,0.134401,20.8573,61.2878,-0.0591358,0.0,0.0
1175,293.5,56.9548,61.874,129.047,100.234,101.112,0.00339284,0.133703,20.8576,61.2277,-0.0795005,0.0,0.0
1180,294.75,56.7582,62.2027,130.677,100.219,100.934,0.00339156,0.133377,20.8578,61.1977,-0.0647915,0.0,0.0
1185,296,56.7431,61.778,131.65,100.233,100.995,0.00339089,0.133347,20.858,61.1777,-0.068961,0.0,0.0
1190,297.25,56.8102,62.0718,134.568,100.261,101.019,0.00338685,0.133092,20.859,61.1176,-0.0685409,0.0,0.0
1195,298.5,56.8621,61.8299,132.091,100.271,100.985,0.00333282,0.132773,20.8597,61.0676,-0.0645881,0.0,0.0
1200,299.75,57.2668,61.9238,136,100.3,100.87,0.0032529,0.132618,20.8603,61.0776,-0.0515501,0.0,0.0
1205,301,57.0145,61.7281,128.612,100.31,101.172,0.0032111,0.132872,20.8606,61.0576,-0.0779201,0.0,0.0
1210,302.25,55.5331,61.131,134.146,100.343,101.207,0.00322393,0.132963,20.8609,61.0275,-0.0780707,0.0,0.0
1215,303.5,56.1715,61.9267,132.705,100.339,100.922,0.00326093,0.13217,20.861,60.9875,-0.052706,0.0,0.0
1220,304.75,56.7373,61.5772,132.283,100.352,101.424,0.00328605,0.130989,20.861,60.9575,-0.0967444,0.0,0.0
1225,306,56.7908,61.6468,131.876,100.369,101.473,0.00328909,0.129911,20.8611,60.9475,-0.0996244,0.0,0.0
1230,307.25,56.6205,61.1746,131.758,100.394,101.135,0.0032685,0.129502,20.8624,60.9174,-0.0669958,0.0,0.0
1235,308.5,56.3221,61.8894,135.668,100.408,101.359,0.00323593,0.129757,20.8638,60.8674,-0.0858018,0.0,0.0
1240,309.75,56.7014,61.6361,131.61,100.413,101.283,0.00321992,0.129686,20.8646,60.8374,-0.0785559,0.0,0.0
1245,311,56.7066,61.4713,129.18,100.431,101.533,0.00320778,0.129047,20.8651,60.8173,-0.099384,0.0,0.0
1250,312.25,56.2332,60.2938,128.993,100.442,101.29,0.00320739,0.128338,20.8654,60.8574,-0.0765256,0.0,0.0
1255,313.5,56.0646,60.9701,129.686,100.46,101.455,0.00323789,0.128172,20.8655,60.7973,-0.0898318,0.0,0.0
1260,314.75,56.2402,61.0743,135.496,100.476,102.014,0.00328297,0.128195,20.8666,60.7673,-0.138344,0.0,0.0
1265,316,56.3916,61.612,132.498,100.499,101.618,0.00329649,0.127882,20.8672,60.7273,-0.100869,0.0,0.0
1270,317.25,56.5041,61.3242,134.748,100.52,101.982,0.00322826,0.127052,20.8676,60.6772,-0.131512,0.0,0.0
1275,318.5,56.5905,61.2761,131.101,100.527,101.356,0.00312413,0.126302,20.8678,60.6872,-0.0748439,0.0,0.0
1280,319.75,56.3864,61.111,133.141,100.551,101.343,0.00301939,0.12573,20.8679,60.6472,-0.0713775,0.0,0.0
1285,321,56.246,61.0448,133.384,100.571,101.509,0.00297002,0.125285,20.868,60.6071,-0.0845305,0.0,0.0
1290,322.25,56.6021,61.0529,131.116,100.571,101.576,0.00298697,0.125632,20.8693,60.5671,-0.0905912,0.0,0.0
1295,323.5,56.4339,61.1583,133.348,100.598,101.185,0.00301097,0.126885,20.87,60.5371,-0.0530424,0.0,0.0
1300,324.75,55.111,60.8629,131.038,100.618,101.714,0.00304821,0.127402,20.8704,60.5071,-0.0987446,0.0,0.0
1305,326,56.4309,61.483,131.194,100.617,101.374,0.00313646,0.126963,20.8703,60.437,-0.0682816,0.0,0.0
1310,327.25,56.7599,61.1955,131.624,100.639,101.234,0.00325076,0.12571,20.8696,60.447,-0.0537157,0.0,0.0
1315,328.5,56.4723,60.7905,132.47,100.655,101.819,0.00332244,0.124628,20.8693,60.427,-0.10472,0.0,0.0
1320,329.75,55.538,60.693,131.952,100.685,101.437,0.00333296,0.124062,20.8707,60.3769,-0.0678129,0.0,0.0
1325,331,55.5859,61.2919,133.146,100.687,101.288,0.00329882,0.123743,20.8718,60.3769,-0.0541887,0.0,0.0
1330,332.25,56.5623,61.0825,131.105,100.703,101.457,0.00327052,0.123812,20.8724,60.3469,-0.0679797,0.0,0.0
1335,333.5,56.3908,61.1243,130.747,100.726,101.534,0.00327805,0.12428,20.8728,60.2969,-0.0727685,0.0,0.0
1340,334.75,56.3555,60.9279,134.181,100.762,101.746,0.00327389,0.124624,20.8731,60.2868,-0.0885232,0.0,0.0
1345,336,55.931,60.8856,129.439,100.773,101.434,0.00325686,0.124707,20.873,60.2468,-0.0595194,0.0,0.0
1350,337.25,55.5991,61.2767,135.058,100.782,101.882,0.0032957,0.124949,20.8722,60.2868,-0.0988253,0.0,0.0
1355,338.5,56.3826,60.6641,131.696,100.791,101.427,0.00339577,0.125214,20.8717,60.2168,-0.0572503,0.0,0.0
1360,339.75,56.1439,60.797,134.166,100.831,101.721,0.00349292,0.125407,20.8715,60.2068,-0.0799775,0.0,0.0
1365,341,55.2941,59.8578,134.958,100.82,101.752,0.00363843,0.125623,20.8713,60.1868,-0.083891,0.0,0.0
1370,342.25,55.8524,60.8665,135.844,100.834,101.382,0.0037569,0.125232,20.8712,60.1868,-0.0494151,0.0,0.0
1375,343.5,55.6586,60.8562,130.615,100.856,101.45,0.00383054,0.124289,20.8712,60.1267,-0.0534236,0.0,0.0
1380,344.75,56.2006,60.7352,130.29,100.865,102.044,0.00383919,0.123678,20.8709,60.1167,-0.10587,0.0,0.0
1385,346,56.0493,61.0403,130.833,100.871,101.965,0.00380652,0.123378,20.8706,60.0566,-0.0982693,0.0,0.0
1390,347.25,56.3201,60.7657,134.188,100.892,101.372,0.00377977,0.123508,20.8704,60.0967,-0.04323,0.0,0.0
1395,348.5,55.8903,60.9868,131.847,100.912,101.648,0.00376214,0.123909,20.8709,60.0466,-0.0662783,0.0,0.0
1400,349.75,56.1973,60.7069,129.506,100.916,101.494,0.00375173,0.124377,20.8715,60.0366,-0.0520339,0.0,0.0
1405,351,56.1833,59.2232,134.252,100.914,101.495,0.00375369,0.124445,20.8711,59.9665,-0.0523074,0.0,0.0
1410,352.25,55.6471,60.7357,132.642,100.927,101.636,0.00377176,0.123957,20.8707,59.9065,-0.06371,0.0,0.0
1415,353.5,55.542,60.7801,129.784,100.937,101.588,0.00377632,0.123412,20.8704,59.8865,-0.0585036,0.0,0.0
1420,354.75,55.3247,60.7156,131.193,100.942,101.482,0.00369624,0.122956,20.8703,59.9065,-0.0486695,0.0,0.0
1425,356,54.9708,60.4294,132.494,100.94,101.784,0.00360587,0.122519,20.8711,59.8765,-0.0758331,0.0,0.0
1430,357.25,55.7359,60.7192,131.142,100.971,101.937,0.00353092,0.121793,20.8716,59.8564,-0.0867395,0.0,0.0
1435,358.5,55.8902,60.5956,131.125,100.956,101.471,0.00349207,0.120789,20.8719,59.8464,-0.0463381,0.0,0.0
1440,359.75,55.9579,60.2836,130.865,100.947,101.537,0.00347625,0.119969,20.8728,59.8564,-0.0530823,0.0,0.0
1445,361,55.5851,60.2115,132.735,100.946,101.678,0.00345558,0.119684,20.8736,59.7964,-0.0658238,0.0,0.0
1450,362.25,55.8087,60.1642,131.087,100.95,101.42,0.00343217,0.120089,20.874,59.6963,-0.0422902,0.0,0.0
1455,363.5,55.0989,60.6277,132.847,100.961,101.589,0.00342341,0.120892,20.8743,59.7463,-0.0564865,0.0,0.0
1460,364.75,55.3125,60.7906,131.289,100.935,101.512,0.00344918,0.12238,20.8745,59.7263,-0.0519269,0.0,0.0
1465,366,54.3557,58.8886,133.549,100.935,101.596,0.00352846,0.123705,20.8746,59.7163,-0.0593954,0.0,0.0
1470,367.25,54.0854,58.3321,133.609,100.936,102.088,0.00360564,0.124315,20.874,59.6562,-0.103389,0.0,0.0
1475,368.5,54.1439,58.9543,130.799,100.945,101.826,0.00374241,0.123873,20.8726,59.6763,-0.0791166,0.0,0.0
1480,369.75,53.4064,59.0377,128.767,100.91,101.569,0.00389249,0.122754,20.871,59.6562,-0.0592997,0.0,0.0
1485,371,54.1363,59.0522,132.399,100.907,101.907,0.00395595,0.121306,20.8701,59.6362,-0.0898001,0.0,0.0
1490,372.25,54.0669,59.114,131.182,100.92,101.811,0.00396072,0.119872,20.8704,59.5762,-0.0800937,0.0,0.0
1495,373.5,54.426,58.8416,134.841,100.902,101.629,0.00391761,0.119302,20.8716,59.5762,-0.065388,0.0,0.0
1500,374.75,54.2309,58.2571,133.698,100.867,101.463,0.00387594,0.119653,20.8733,59.5862,-0.0536644,0.0,0.0
1505,376,53.9741,58.9402,131.058,100.856,101.572,0.00387222,0.120186,20.8743,59.5461,-0.0644426,0.0,0.0
1510,377.25,53.7999,58.3134,130.985,100.844,101.629,0.00386863,0.120073,20.8749,59.5662,-0.0706246,0.0,0.0
1515,378.5,53.8497,57.8222,130.122,100.812,101.921,0.00382208,0.11962,20.8752,59.5061,-0.0996024,0.0,0.0
1520,379.75,53.8022,58.7407,129.974,100.792,101.631,0.0037424,0.118958,20.8754,59.5061,-0.0755413,0.0,0.0
1525,381,53.7781,58.2692,132.228,100.781,101.623,0.00366667,0.118421,20.8755,59.4561,-0.0757148,0.0,0.0
1530,382.25,53.6705,58.2922,130.234,100.762,102.165,0.00364159,0.11817,20.8756,59.396,-0.125924,0.0,0.0
1535,383.5,53.6274,58.4147,131.574,100.735,101.347,0.0036651,0.118154,20.8756,59.406,-0.0551122,0.0,0.0
1540,384.75,53.7784,58.3436,133.395,100.71,102.057,0.00371354,0.118661,20.8757,59.416,-0.121031,0.0,0.0
1545,386,53.4734,58.0157,132.481,100.72,101.705,0.00375814,0.119218,20.8757,59.376,-0.0886071,0.0,0.0
1550,387.25,54.2282,59.1775,134.175,100.676,101.424,0.00379654,0.118965,20.8757,59.366,-0.0674169,0.0,0.0
1555,388.5,53.5053,58.3594,132.603,100.652,101.334,0.00383146,0.117999,20.8757,59.396,-0.0615054,0.0,0.0
1560,389.75,53.7597,58.0947,133.183,100.611,101.546,0.00393551,0.117102,20.8757,59.366,-0.0842658,0.0,0.0
1565,391,53.4448,58.1765,128.896,100.602,101.486,0.00404602,0.11652,20.8763,59.366,-0.0796665,0.0,0.0
1570,392.25,53.6645,58.4075,133.996,100.561,101.498,0.00415675,0.116093,20.8768,59.2859,-0.0844603,0.0,0.0
1575,393.5,53.8662,58.4963,132.718,100.538,101.357,0.00422551,0.115858,20.877,59.2359,-0.0738899,0.0,0.0
1580,394.75,53.5659,58.7002,130.802,100.522,101.608,0.00424776,0.115677,20.878,59.1658,-0.0979329,0.0,0.0
1585,396,53.4836,58.1341,132.321,100.502,101.161,0.00425344,0.115506,20.8787,59.1658,-0.0595609,0.0,0.0
1590,397.25,53.417,58.7117,132.149,100.479,101.655,0.00425138,0.115383,20.8791,59.2058,-0.106013,0.0,0.0
1595,398.5,53.0587,58.3173,132.004,100.447,101.522,0.00424231,0.115202,20.8791,59.1858,-0.0969715,0.0,0.0
1600,399.75,54.1801,57.7456,135.241,100.437,101.189,0.00423008,0.11502,20.8784,59.2058,-0.0679212,0.0,0.0
1605,401,53.7302,57.8788,131.863,100.418,101.312,0.00421871,0.114822,20.878,59.1758,-0.0807005,0.0,0.0
1610,402.25,51.8497,57.521,130.665,100.391,101.378,0.00419801,0.114463,20.8777,59.1257,-0.0890758,0.0,0.0
1615,403.5,53.1213,58.3266,132.879,100.382,101.329,0.00416327,0.114284,20.8776,59.1958,-0.0854966,0.0,0.0
1620,404.75,53.7011,57.8395,133.476,100.382,101.264,0.00414205,0.114178,20.8775,59.1057,-0.0797442,0.0,0.0
1625,406,53.713,58.0866,135.279,100.362,101.829,0.00415612,0.114093,20.8775,59.0757,-0.132227,0.0,0.0
1630,407.25,53.104,57.6565,130.506,100.362,101.219,0.00417586,0.113768,20.8774,59.1758,-0.0774147,0.0,0.0
1635,408.5,53.338,57.971,132.268,100.356,101.134,0.00416913,0.11335,20.8774,59.1057,-0.0702898,0.0,0.0
1640,409.75,53.6188,57.8403,132.919,100.335,101.478,0.0041488,0.112919,20.8783,59.0657,-0.103154,0.0,0.0
1645,411,53.109,57.6984,139.401,100.301,101.466,0.0040823,0.112717,20.8789,59.1257,-0.105236,0.0,0.0
1650,412.25,53.6506,57.2423,131.232,100.316,101.259,0.0039976,0.112866,20.8792,59.1658,-0.0851678,0.0,0.0
1655,413.5,53.5065,57.8169,127.191,100.326,101.583,0.00388963,0.113051,20.8794,59.1658,-0.113411,0.0,0.0
1660,414.75,53.384,57.7388,126.124,100.314,101.979,0.00380272,0.112522,20.8795,59.1458,-0.149978,0.0,0.0
1665,416,53.4913,57.5091,130.095,100.295,100.965,0.00371685,0.111659,20.8803,59.1157,-0.0606495,0.0,0.0
1670,417.25,53.0082,58.0561,132.607,100.291,101.256,0.0036845,0.110976,20.8808,59.0957,-0.0871479,0.0,0.0
1675,418.5,53.2838,57.9422,131.761,100.304,101.078,0.00368765,0.110721,20.882,59.0657,-0.0700431,0.0,0.0
1680,419.75,53.0044,57.9769,132.595,100.29,101.72,0.00369221,0.111031,20.8828,58.9956,-0.128926,0.0,0.0
1685,421,53.4833,57.0223,132.369,100.282,101.178,0.00368442,0.111307,20.8833,59.0056,-0.0809974,0.0,0.0
1690,422.25,53.3374,57.1724,132.791,100.266,101.212,0.00361551,0.11079,20.8836,59.0357,-0.0855262,0.0,0.0
1695,423.5,53.3026,57.54,133.46,100.282,100.951,0.00349524,0.110292,20.8837,59.0156,-0.0605588,0.0,0.0
1700,424.75,52.8683,57.4008,130.275,100.27,101.13,0.00336089,0.110292,20.8845,58.9756,-0.0778073,0.0,0.0
1705,426,53.6251,57.7742,134.302,100.28,101.427,0.00325334,0.110471,20.8852,58.9756,-0.103649,0.0,0.0
1710,427.25,53.3145,57.9759,132.938,100.28,100.953,0.00320926,0.110233,20.8857,58.9356,-0.0609162,0.0,0.0
1715,428.5,53.497,56.2672,133.74,100.307,101.2,0.00319091,0.110069,20.885,58.9956,-0.0807148,0.0,0.0
1720,429.75,52.855,56.9604,135.181,100.315,101.055,0.00317184,0.110211,20.8846,58.9356,-0.0670111,0.0,0.0
1725,431,53.5588,57.4348,141.143,100.316,101.05,0.00314911,0.110422,20.8843,58.9356,-0.0663597,0.0,0.0
1730,432.25,52.9262,58.0837,132.656,100.312,101.349,0.00311312,0.110573,20.8842,58.9456,-0.0936574,0.0,0.0
1735,433.5,53.315,57.3099,130.084,100.324,101.297,0.00307873,0.111013,20.8847,58.9256,-0.0878714,0.0,0.0
1740,434.75,52.6183,56.6785,132.219,100.349,101.02,0.00304373,0.111281,20.8846,58.9256,-0.0606616,0.0,0.0
1745,436,52.6887,57.1803,134.258,100.353,101.109,0.00301494,0.111322,20.8843,58.8755,-0.0683598,0.0,0.0
1750,437.25,52.7094,57.5278,136.959,100.373,101.388,0.00298449,0.111303,20.8842,58.8755,-0.0916764,0.0,0.0
1755,438.5,52.6616,57.4859,134.004,100.375,101.336,0.00300434,0.111185,20.8838,58.8955,-0.0868119,0.0,0.0
1760,439.75,52.9268,56.2898,132.094,100.36,101.296,0.00308741,0.11165,20.8824,58.8755,-0.0845562,0.0,0.0
1765,441,53.0455,57.4607,132.787,100.4,100.936,0.00318092,0.112197,20.8815,58.8655,-0.0484992,0.0,0.0
1770,442.25,53.2136,57.7096,131.186,100.424,101.28,0.00323592,0.11219,20.8811,58.8855,-0.0772702,0.0,0.0
1775,443.5,53.0999,57.6849,132.037,100.417,101.437,0.00321084,0.111859,20.8816,58.8855,-0.092062,0.0,0.0
1780,444.75,53.2445,57.4655,134.616,100.433,101.029,0.00316082,0.111703,20.882,58.7754,-0.0538817,0.0,0.0
1785,446,53.3962,57.2783,132.835,100.421,101.82,0.00304644,0.111582,20.8822,58.7954,-0.125983,0.0,0.0
1790,447.25,52.4146,57.5057,134.123,100.445,101.034,0.00294401,0.111385,20.8824,58.7554,-0.0532242,0.0,0.0
1795,448.5,52.8315,57.6021,135.011,100.44,101.845,0.00289743,0.111151,20.8836,58.7954,-0.126517,0.0,0.0
1800,449.75,53.0019,57.3537,130.55,100.443,101.186,0.00291505,0.111182,20.8845,58.7254,-0.0670937,0.0,0.0
1805,451,52.8411,57.2792,132.28,100.434,100.976,0.00297556,0.111288,20.8851,58.7754,-0.0490341,0.0,0.0
1810,452.25,52.2362,57.2052,136.038,100.452,100.991,0.00303834,0.111415,20.8854,58.6753,-0.0487131,0.0,0.0
1815,453.5,52.759,57.2666,131.847,100.421,101.27,0.00308094,0.111586,20.8851,58.6853,-0.0767085,0.0,0.0
1820,454.75,52.3457,56.9419,131.194,100.433,101.22,0.00308373,0.111701,20.8845,58.6553,-0.0710793,0.0,0.0
1825,456,52.9999,57.2157,129.179,100.444,101.122,0.00306723,0.112177,20.8841,58.6353,-0.0612999,0.0,0.0
1830,457.25,52.602,56.3044,130.998,100.443,100.936,0.00305846,0.112646,20.8839,58.6853,-0.0445387,0.0,0.0
1835,458.5,53.0949,57.6284,133.48,100.436,101.741,0.00307475,0.112662,20.8837,58.6553,-0.117598,0.0,0.0
1840,459.75,52.7898,57.0626,128.713,100.434,101.173,0.00305048,0.111767,20.8834,58.6553,-0.0667787,0.0,0.0
1845,461,52.8834,57.6983,134.123,100.443,101.287,0.00297859,0.110923,20.8831,58.6253,-0.076242,0.0,0.0
1850,462.25,52.9521,57.554,133.761,100.429,101.108,0.00291302,0.111114,20.8826,58.6053,-0.0613972,0.0,0.0
1855,463.5,51.9629,57.1342,133.052,100.418,101.321,0.00284669,0.111328,20.8826,58.5252,-0.0815315,0.0,0.0
1860,464.75,52.7868,57.7662,131.744,100.404,101.086,0.0027884,0.111328,20.8829,58.5652,-0.0616776,0.0,0.0
1865,466,52.9263,57.9525,132.718,100.416,101.45,0.00276472,0.111138,20.8831,58.5252,-0.093296,0.0,0.0
1870,467.25,52.6213,56.457,130.452,100.421,101.417,0.0028233,0.110889,20.8832,58.4952,-0.0898993,0.0,0.0
1875,468.5,51.4135,56.7156,131.944,100.418,101.308,0.00289822,0.110679,20.8832,58.5352,-0.0804497,0.0,0.0
1880,469.75,51.9366,57.4049,132.14,100.396,100.993,0.00292311,0.110671,20.8833,58.4451,-0.0540685,0.0,0.0
1885,471,52.5423,57.5492,134.907,100.395,101.141,0.00291577,0.111035,20.8831,58.4451,-0.0674142,0.0,0.0
1890,472.25,52.1823,57.0604,133.426,100.376,100.883,0.00290889,0.111494,20.8822,58.4851,-0.0458727,0.0,0.0
1895,473.5,52.7806,56.8877,131.102,100.375,101.247,0.0028808,0.111736,20.8817,58.4751,-0.0787891,0.0,0.0
1900,474.75,52.7818,57.3383,131.942,100.368,101.39,0.0027963,0.111491,20.8814,58.5252,-0.092306,0.0,0.0
1905,476,52.3893,56.9588,134.467,100.36,101.176,0.00269937,0.111023,20.8813,58.4651,-0.0737969,0.0,0.0
1910,477.25,52.2941,56.7606,135.229,100.333,101.348,0.00265308,0.111174,20.8812,58.4351,-0.0916523,0.0,0.0
1915,478.5,53.111,57.2425,135.006,100.32,101.065,0.00267944,0.111699,20.8811,58.4551,-0.0674207,0.0,0.0
1920,479.75,50.1297,57.0717,137.302,100.32,101.456,0.00272725,0.112428,20.8811,58.4651,-0.102517,0.0,0.0
1925,481,52.5807,57.3434,134.843,100.316,101.355,0.00271938,0.112878,20.881,58.4351,-0.0938137,0.0,0.0
1930,482.25,52.8881,56.8975,130.817,100.307,101.389,0.0026296,0.112153,20.881,58.4051,-0.0977156,0.0,0.0
1935,483.5,52.4882,57.1375,128.798,100.317,101.606,0.00253839,0.111226,20.881,58.4351,-0.116283,0.0,0.0
1939,484.5,52.3183,57.0037,135.462,100.317,101.042,0.00248954,0.110801,20.881,58.4651,-0.0655362,0.0,0.0