File: 01_Data/Cellulose_Insulation/Cone/Cellulose_Insulation_Cone_HF50Scan_230615_R1.csv
Names,Time,Stack TC,Smoke TC,Exh Press,Smoke Comp,Smoke Meas,CO Meter,CO2 Meter,O2 Meter,Sample Mass,Ext Coeff,Start Test,Flame Verif
Chan Gain,,500,500,1,1,1,1,1,1,1,1,1.0,1.0
Offset,,0,0,0.245636,0,0,0,0,0,0,0,0.0,0.0
Gain,,1,1,25.011,13.9157,15.2004,1,1,1,1.00094,1.03834,1.0,1.0
Units,sec,C,C,Pa,%,%,%,%,%,g,/m,,
Baseline,,35.2106,37.9312,142.895,100.186,100.149,0.000424615,0.0475598,20.9555,-445.561,0.0033282,,
4,0.75,32.3588,34.1595,149.1,101.147,100.865,7.94022e-05,0.0504395,20.9528,75.2309,0.025436,1.0,0.0
8,1.75,32.3413,33.6768,143.738,101.141,99.5863,0.000106079,0.0502284,20.9535,75.0408,0.141123,0.0,0.0
12,2.75,31.2081,34.3641,128.764,101.149,102.288,0.000134633,0.0500899,20.9535,74.8706,-0.101952,0.0,1.0
16,3.75,32.9157,36.2914,124.353,101.149,102.505,0.000160073,0.0499997,20.9535,74.6204,-0.121262,0.0,1.0
20,4.75,33.998,39.1875,128.686,101.15,101.807,0.000182028,0.0499422,20.9541,74.4802,-0.0589817,0.0,1.0
24,5.75,35.2833,41.3262,128.101,101.147,101.333,0.000195906,0.0499308,20.955,74.3701,-0.0167322,0.0,1.0
28,6.75,36.165,42.0423,127.006,101.145,101.521,0.000193153,0.0499088,20.9556,74.19,-0.0337937,0.0,1.0
32,7.75,35.3141,42.9714,126.117,101.163,101.659,0.000162334,0.0501153,20.9554,74.0098,-0.0445441,0.0,1.0
36,8.75,36.0737,45.2153,129.771,101.153,101.641,0.000102712,0.0527438,20.955,73.8296,-0.0438824,0.0,0.0
40,9.75,37.2632,46.3544,127.433,101.155,101.635,3.67772e-05,0.0649962,20.9548,73.6594,-0.0430712,0.0,0.0
44,10.75,38.0163,47.3586,130.048,101.164,101.814,4.63845e-06,0.0954604,20.954,73.5393,-0.0583419,0.0,0.0
48,11.75,38.5969,48.8531,129.706,101.166,101.818,7.033e-05,0.13646,20.9509,73.3391,-0.0584823,0.0,0.0
52,12.75,38.3695,49.2935,130.467,101.162,101.574,0.000205804,0.184164,20.9353,73.2791,-0.0370115,0.0,0.0
56,13.75,40.2,50.409,127.425,101.174,101.685,0.000413039,0.233259,20.9148,73.129,-0.0458803,0.0,0.0
60,14.75,40.1909,50.8267,127.481,101.185,101.74,0.000699455,0.277712,20.8606,73.0289,-0.0497879,0.0,0.0
64,15.75,40.6737,51.2059,128.917,101.201,101.781,0.00102605,0.312923,20.7937,72.9188,-0.0520688,0.0,0.0
68,16.75,41.3961,52.1063,132.916,101.204,101.84,0.00133997,0.337692,20.7243,72.7786,-0.0571104,0.0,0.0
72,17.75,41.4824,52.3122,129.403,101.19,101.801,0.00161826,0.353862,20.6716,72.6485,-0.0548473,0.0,0.0
76,18.75,42.1155,52.9746,132.605,101.186,101.857,0.00182957,0.362831,20.6362,72.5084,-0.0602118,0.0,0.0
80,19.75,42.6504,53.3281,129.983,101.19,101.88,0.00194006,0.366517,20.6179,72.4583,-0.0619001,0.0,0.0
84,20.75,43.0337,53.6325,128.275,101.193,102.309,0.00203052,0.36614,20.601,72.3983,-0.0998725,0.0,0.0
88,21.75,43.1084,54.3031,133.24,101.184,102.199,0.00205992,0.36332,20.5906,72.2581,-0.0908824,0.0,0.0
92,22.75,43.804,53.6961,128.668,101.177,101.909,0.00204697,0.359675,20.5873,72.108,-0.0657358,0.0,0.0
96,23.75,43.2705,54.6805,135.322,101.194,101.883,0.0020254,0.355037,20.5897,72.0379,-0.061805,0.0,0.0
100,24.75,43.4575,55.2393,129.746,101.166,101.947,0.00197979,0.351519,20.5922,71.8978,-0.0700496,0.0,0.0
104,25.75,43.3667,55.0913,131.516,101.153,102.144,0.00193942,0.346434,20.5961,71.7777,-0.0888324,0.0,0.0
108,26.75,45.0879,55.5577,136.115,101.163,101.584,0.00188745,0.340891,20.6012,71.6375,-0.0378499,0.0,0.0
112,27.75,44.8538,55.3984,129.513,101.136,101.922,0.0018339,0.335369,20.6064,71.5875,-0.0705672,0.0,0.0
116,28.75,44.8186,55.4212,135.198,101.105,101.996,0.00178646,0.329297,20.613,71.4874,-0.0799107,0.0,0.0
120,29.75,45.1299,55.6632,131.274,101.106,101.656,0.00175696,0.322782,20.6209,71.4073,-0.0494189,0.0,0.0
124,30.75,45.8369,55.5121,131.82,101.087,101.865,0.00174247,0.317991,20.6273,71.3873,-0.0698286,0.0,0.0
128,31.75,45.4717,55.7708,132.307,101.064,101.657,0.00173613,0.311418,20.6371,71.3072,-0.0532488,0.0,0.0
132,32.75,45.8057,55.9211,132.198,101.028,101.741,0.00173741,0.305392,20.6471,71.1971,-0.0639845,0.0,0.0
136,33.75,44.9402,55.0095,131.601,100.998,101.526,0.00173659,0.299342,20.6554,71.087,-0.0474939,0.0,0.0
140,34.75,46.1293,55.7013,130.949,100.985,101.486,0.00172773,0.29394,20.6633,70.9369,-0.0451012,0.0,0.0
144,35.75,46.0667,54.6312,139.933,100.944,101.491,0.00171714,0.288398,20.6701,70.8368,-0.0492791,0.0,0.0
148,36.75,46.2961,55.296,134.861,100.904,101.601,0.00170122,0.283541,20.6764,70.7968,-0.0627391,0.0,0.0
152,37.75,46.125,55.4907,135.878,100.876,101.088,0.00167507,0.2785,20.6836,70.6967,-0.019124,0.0,0.0
156,38.75,46.2614,55.2101,130.945,100.836,101.299,0.00165118,0.273066,20.6896,70.5765,-0.0417268,0.0,0.0
160,39.75,46.4374,55.5178,131.654,100.805,101.345,0.00165121,0.268829,20.6962,70.5165,-0.0486536,0.0,0.0
164,40.75,46.6225,55.0289,133.179,100.762,101.36,0.0016558,0.265321,20.7001,70.4464,-0.0538626,0.0,0.0
168,41.75,46.6703,55.0776,133.558,100.71,101.063,0.00166929,0.261153,20.7054,70.3563,-0.0318688,0.0,0.0
172,42.75,46.731,55.0401,133.836,100.663,101.22,0.0016759,0.257574,20.7104,70.2562,-0.050253,0.0,0.0
176,43.75,46.8637,54.7363,134.494,100.619,101.187,0.00168452,0.25397,20.7153,70.2062,-0.0513279,0.0,0.0
180,44.75,46.6432,54.575,136.097,100.565,100.958,0.0017045,0.25016,20.7202,70.1361,-0.0356025,0.0,0.0
184,45.75,46.3008,55.2699,135.763,100.529,100.955,0.00176437,0.247112,20.7231,70.0761,-0.0385406,0.0,0.0
188,46.75,46.7998,54.431,130.891,100.489,100.802,0.00186404,0.243086,20.7274,70.026,-0.0282989,0.0,0.0
192,47.75,46.9275,54.1235,133.949,100.436,100.669,0.00194657,0.239011,20.7312,69.9259,-0.0211507,0.0,0.0
196,48.75,46.6972,54.2151,136.119,100.397,100.454,0.00201348,0.235952,20.7346,69.8358,-0.0052035,0.0,0.0
200,49.75,46.5458,53.8301,134.11,100.345,100.675,0.00207726,0.231988,20.7383,69.7858,-0.0299028,0.0,0.0
204,50.75,46.7968,54.0056,138.808,100.306,100.622,0.0021688,0.228096,20.7427,69.7257,-0.028661,0.0,0.0
208,51.75,46.9299,54.0381,135.004,100.261,100.544,0.00228967,0.22454,20.7472,69.6757,-0.0256961,0.0,0.0
212,52.75,46.7843,53.6102,132.524,100.22,100.536,0.00241737,0.221292,20.752,69.5656,-0.0286861,0.0,0.0
216,53.75,47.3118,53.9329,137.374,100.173,100.355,0.00251832,0.218305,20.7573,69.4355,-0.0165277,0.0,0.0
220,54.75,47.0167,53.2001,137.82,100.146,100.472,0.0025734,0.215424,20.7619,69.3254,-0.0296414,0.0,0.0
224,55.75,46.7431,53.7488,138.42,100.09,100.372,0.00258235,0.212815,20.7649,69.3254,-0.025615,0.0,0.0
228,56.75,46.8824,52.9906,134.13,100.063,100.428,0.00255804,0.209707,20.7682,69.2353,-0.0331769,0.0,0.0
232,57.75,46.4033,53.6753,133.627,100.046,100.355,0.00254106,0.207064,20.7711,69.1752,-0.0281159,0.0,0.0
236,58.75,46.7632,53.0043,136.672,100.014,100.409,0.00255137,0.205018,20.774,69.1352,-0.035899,0.0,0.0
240,59.75,46.6263,53.3539,134.904,99.982,100.419,0.00258827,0.203478,20.7777,69.0351,-0.0397254,0.0,0.0
244,60.75,46.9857,52.9391,138.908,99.9684,100.361,0.00264409,0.202212,20.78,68.985,-0.0357022,0.0,0.0
248,61.75,46.8598,53.1377,135.997,99.9616,100.409,0.00271995,0.200602,20.7816,68.965,-0.0406988,0.0,0.0
252,62.75,46.8663,53.046,136.55,99.9561,100.197,0.00282995,0.198852,20.7834,68.8649,-0.0219518,0.0,0.0
256,63.75,46.4867,52.5853,136.422,99.9437,100.374,0.00294761,0.197125,20.7846,68.8149,-0.0391256,0.0,0.0
260,64.75,46.1996,52.9029,134.803,99.9446,100.551,0.0030642,0.195715,20.7862,68.7849,-0.0550723,0.0,0.0
264,65.75,46.619,52.5062,135.022,99.9641,100.443,0.00316637,0.194565,20.7889,68.6547,-0.0434962,0.0,0.0
268,66.75,47.1258,52.3554,131.938,99.9709,100.343,0.00328094,0.193509,20.7906,68.6147,-0.0338706,0.0,0.0
272,67.75,46.8559,52.2889,133.672,99.9913,100.271,0.00337578,0.192654,20.7919,68.5546,-0.0254424,0.0,0.0
276,68.75,46.8211,52.327,135.3,100.024,100.349,0.0034458,0.19122,20.7931,68.5146,-0.0296212,0.0,0.0
280,69.75,46.9362,52.0655,133.762,100.06,100.577,0.00349311,0.189482,20.7945,68.4245,-0.0469454,0.0,0.0
284,70.75,46.7055,52.353,136.735,100.09,100.276,0.0035265,0.187685,20.7954,68.3945,-0.0168545,0.0,0.0
288,71.75,46.7879,52.5167,137.125,100.14,100.671,0.00355136,0.186663,20.7961,68.3545,-0.0481635,0.0,0.0
292,72.75,46.3271,52.253,137.269,100.191,100.66,0.00360441,0.185604,20.7979,68.2143,-0.0424832,0.0,0.0
296,73.75,46.4244,52.6262,137.496,100.251,100.542,0.00369753,0.184797,20.7997,68.1843,-0.0264545,0.0,0.0
300,74.75,46.4808,52.3569,135.76,100.32,100.988,0.0037946,0.184184,20.8013,68.1042,-0.0604238,0.0,0.0
304,75.75,46.6335,52.2771,135.062,100.381,100.644,0.00386946,0.183726,20.8028,68.0041,-0.0237734,0.0,0.0
308,76.75,46.527,52.1322,138.345,100.457,100.65,0.00392824,0.183407,20.8037,67.9641,-0.0175078,0.0,0.0
312,77.75,46.8091,52.162,136.191,100.534,101.08,0.00395767,0.183095,20.8043,67.874,-0.0493719,0.0,0.0
316,78.75,46.1386,52.3672,138.569,100.62,100.926,0.00398379,0.182598,20.8045,67.7939,-0.0276356,0.0,0.0
320,79.75,46.5722,52.2533,138.881,100.682,101.191,0.00402241,0.182028,20.8045,67.7339,-0.0459387,0.0,0.0
324,80.75,46.5677,51.6201,135.62,100.75,101.199,0.00409897,0.181463,20.8045,67.6938,-0.0405008,0.0,0.0
328,81.75,46.3585,51.5218,136.118,100.827,101.159,0.00420605,0.181012,20.8052,67.6538,-0.0299627,0.0,0.0
332,82.75,46.6159,51.5195,130.977,100.913,101.337,0.00430774,0.180465,20.806,67.5837,-0.0381612,0.0,0.0
336,83.75,45.3776,51.8138,133.192,100.984,101.52,0.00440622,0.179621,20.8071,67.5237,-0.0482203,0.0,0.0
340,84.75,46.2652,51.8287,137.24,101.066,101.403,0.00447857,0.17843,20.8079,67.4836,-0.0303745,0.0,0.0
344,85.75,46.342,51.2987,136.494,101.14,101.385,0.00454244,0.17722,20.8083,67.4336,-0.0220922,0.0,0.0
348,86.75,46.2474,51.9866,137.396,101.224,101.546,0.00460858,0.176019,20.8087,67.3835,-0.028893,0.0,0.0
352,87.75,46.3076,51.81,136.326,101.278,101.594,0.00471352,0.174964,20.8101,67.3235,-0.0284089,0.0,0.0
356,88.75,46.6245,51.7436,134.252,101.346,101.672,0.00481654,0.173956,20.8118,67.2434,-0.0293222,0.0,0.0
360,89.75,46.4306,51.4375,138.906,101.41,101.578,0.00490088,0.172848,20.8133,67.1433,-0.0150419,0.0,0.0
364,90.75,46.1295,51.3532,139.214,101.475,101.616,0.00496102,0.171859,20.8143,67.1133,-0.0126968,0.0,0.0
368,91.75,46.3262,50.905,133.698,101.518,101.98,0.00499193,0.170897,20.815,67.0833,-0.0413499,0.0,0.0
372,92.75,46.5345,51.3712,137.035,101.579,101.979,0.00499395,0.170094,20.8162,67.0432,-0.0358619,0.0,0.0
376,93.75,46.5908,50.8979,135.49,101.619,102.143,0.004983,0.169357,20.817,66.9832,-0.0468963,0.0,0.0
380,94.75,46.1535,51.432,136.1,101.651,101.95,0.00497743,0.168774,20.8178,66.9131,-0.0267796,0.0,0.0
384,95.75,46.5751,51.3121,133.524,101.693,101.968,0.00499899,0.167863,20.8188,66.8831,-0.0246297,0.0,0.0
388,96.75,45.6368,51.2746,137.573,101.712,101.965,0.00503357,0.167097,20.8193,66.843,-0.0226277,0.0,0.0
392,97.75,46.1575,51.1488,135.124,101.737,102.076,0.00511024,0.166442,20.8197,66.7629,-0.030362,0.0,0.0
396,98.75,46.4067,52.0439,135.153,101.732,102.092,0.00522192,0.165972,20.8204,66.6929,-0.0321085,0.0,0.0
400,99.75,46.1379,51.522,139.636,101.77,101.917,0.00535647,0.165803,20.8212,66.6629,-0.0131889,0.0,0.0
404,100.75,46.4544,51.5933,135.697,101.74,101.945,0.0054528,0.165891,20.8216,66.6028,-0.0182955,0.0,0.0
408,101.75,46.4975,51.4981,143.779,101.732,102.047,0.00556094,0.166083,20.8217,66.5427,-0.0281306,0.0,0.0
412,102.75,45.9137,51.5011,137.885,101.727,101.809,0.00565654,0.166209,20.8213,66.4827,-0.00732605,0.0,0.0
416,103.75,45.9787,51.09,134.878,101.704,102.043,0.00574259,0.166117,20.821,66.4126,-0.0302683,0.0,0.0
420,104.75,45.662,50.7746,139.679,101.677,101.998,0.00582144,0.16579,20.8208,66.3726,-0.0286474,0.0,0.0
424,105.75,46.132,51.3809,139.589,101.684,101.861,0.00586829,0.165379,20.8206,66.3225,-0.0158103,0.0,0.0
428,106.75,46.058,50.4977,134.568,101.64,101.92,0.00586465,0.164783,20.8212,66.2525,-0.0250374,0.0,0.0
432,107.75,45.6504,50.8236,138.115,101.619,102.014,0.00583248,0.163973,20.8217,66.1524,-0.0353104,0.0,0.0
436,108.75,45.9528,51.3089,133.612,101.566,101.813,0.00579076,0.163155,20.8221,66.0423,-0.0220802,0.0,0.0
440,109.75,46.0828,50.7749,137.938,101.521,102.074,0.00577963,0.162401,20.8227,66.0923,-0.0494516,0.0,0.0
444,110.75,45.646,50.4815,135.801,101.488,102.105,0.00580135,0.161769,20.8235,65.9622,-0.0551941,0.0,0.0
448,111.75,45.6661,50.8555,138.39,101.43,101.791,0.0058931,0.161267,20.8248,65.9522,-0.0323629,0.0,0.0
452,112.75,45.5188,51.1519,132.423,101.413,101.779,0.00600494,0.160652,20.8257,65.9121,-0.0328059,0.0,0.0
456,113.75,46.0462,50.7594,139.203,101.372,101.696,0.00610579,0.159807,20.8263,65.8221,-0.0290335,0.0,0.0
460,114.75,45.6905,50.0466,135.316,101.33,101.973,0.00617427,0.159094,20.8266,65.762,-0.0576267,0.0,0.0
464,115.75,45.4674,50.3704,137.344,101.287,101.534,0.0062589,0.15825,20.8276,65.712,-0.0222375,0.0,0.0
468,116.75,45.4569,50.2826,134.626,101.274,101.682,0.00632747,0.157726,20.8283,65.6519,-0.0366059,0.0,0.0
472,117.75,45.5908,50.2166,137.593,101.224,101.343,0.00638876,0.157456,20.8288,65.6119,-0.010772,0.0,0.0
476,118.75,45.878,50.6885,140.088,101.191,101.437,0.00643336,0.157081,20.8291,65.5618,-0.0220905,0.0,0.0
480,119.75,45.6357,50.4842,136.245,101.167,101.455,0.00645342,0.15653,20.8296,65.5218,-0.0258562,0.0,0.0
484,120.75,45.2878,49.9876,137.624,101.127,101.365,0.00645934,0.155743,20.8305,65.4117,-0.0213673,0.0,0.0
488,121.75,45.7587,50.3942,138.813,101.089,101.464,0.00646852,0.155027,20.8315,65.3716,-0.0337654,0.0,0.0
492,122.75,45.6749,49.9577,132.283,101.061,101.259,0.00648918,0.15449,20.8321,65.3216,-0.0178249,0.0,0.0
496,123.75,45.2988,50.5491,139.798,101.041,101.417,0.00651339,0.154118,20.833,65.2715,-0.0338837,0.0,0.0
500,124.75,45.8126,50.5073,132.633,101.01,101.419,0.00652788,0.153722,20.8339,65.2515,-0.036806,0.0,0.0
504,125.75,45.6851,50.3374,138.844,100.98,101.275,0.00652656,0.153224,20.8345,65.2115,-0.0265221,0.0,0.0
508,126.75,45.5895,50.6376,138.953,100.965,101.425,0.00651984,0.152553,20.8349,65.1815,-0.0414459,0.0,0.0
512,127.75,45.365,50.194,131.134,100.944,101.165,0.00651907,0.152009,20.8359,65.1114,-0.0198857,0.0,0.0
516,128.75,45.5676,50.3915,138.569,100.918,101.345,0.00652746,0.151859,20.8366,65.0213,-0.0384905,0.0,0.0
520,129.75,45.8656,49.9901,136.065,100.898,101.34,0.00654275,0.151922,20.8371,64.9813,-0.0397985,0.0,0.0
524,130.75,45.6416,50.4262,134.176,100.887,101.413,0.00659817,0.15205,20.8374,64.9412,-0.0473765,0.0,0.0
528,131.75,46.0344,50.139,136.535,100.881,101.186,0.00668871,0.152135,20.8376,64.9112,-0.0274788,0.0,0.0
532,132.75,45.6265,50.0987,140.162,100.856,101.507,0.00678722,0.152082,20.8378,64.8612,-0.058591,0.0,0.0
536,133.75,45.4585,49.8853,138.417,100.849,101.103,0.00684927,0.151909,20.8373,64.8111,-0.0229167,0.0,0.0
540,134.75,45.3755,50.1985,138.616,100.839,101.202,0.00686226,0.151636,20.837,64.721,-0.0327721,0.0,0.0
544,135.75,45.1098,49.8088,135.149,100.821,101.112,0.00683372,0.1513,20.8369,64.681,-0.0262417,0.0,0.0
548,136.75,45.5635,50.3724,134.291,100.821,101.217,0.00677826,0.150838,20.8375,64.651,-0.0357224,0.0,0.0
552,137.75,45.4131,50.5737,137.926,100.816,101.473,0.00671657,0.150533,20.838,64.5709,-0.0592347,0.0,0.0
556,138.75,45.9125,49.7287,135.913,100.844,101.181,0.00668879,0.15045,20.8382,64.4908,-0.0304333,0.0,0.0
560,139.75,45.6293,49.6832,140.58,100.842,101.072,0.0067083,0.150506,20.8384,64.4708,-0.0206882,0.0,0.0
564,140.75,45.9445,49.9392,136.156,100.87,101.232,0.00676566,0.150695,20.8386,64.4508,-0.032686,0.0,0.0
568,141.75,45.4741,50.2489,137.321,100.895,101.012,0.00684413,0.150924,20.8386,64.3907,-0.0105421,0.0,0.0
572,142.75,45.0442,50.2241,135.631,100.911,101.336,0.0069156,0.15127,20.8388,64.3407,-0.0382697,0.0,0.0
576,143.75,45.7505,50.0672,134.816,100.926,101.507,0.00696604,0.151595,20.8385,64.3006,-0.0522654,0.0,0.0
580,144.75,45.4219,49.9677,141.963,100.943,101.338,0.00698412,0.151836,20.8379,64.2206,-0.0355654,0.0,0.0
584,145.75,45.7143,50.4985,139.344,100.959,101.139,0.00697667,0.151929,20.8376,64.2406,-0.0162057,0.0,0.0
588,146.75,46.0959,50.1184,132.618,100.974,101.343,0.00692282,0.151799,20.8374,64.1605,-0.0332303,0.0,0.0
592,147.75,45.5946,49.7795,136.609,101.002,101.181,0.00684301,0.151591,20.8372,64.1405,-0.0161758,0.0,0.0
596,148.75,45.6696,49.4178,136.703,101.013,101.193,0.00673648,0.151346,20.8371,64.0404,-0.0162275,0.0,0.0
600,149.75,45.5024,50.362,135.583,101.012,101.268,0.00663399,0.151225,20.837,63.9403,-0.0230626,0.0,0.0
604,150.75,45.9541,50.2567,134.2,101.045,101.326,0.00653457,0.151279,20.837,63.9403,-0.0252894,0.0,0.0
608,151.75,45.6467,50.1767,134.582,101.036,101.348,0.00648377,0.151488,20.8368,63.8802,-0.0281328,0.0,0.0
612,152.75,45.1236,49.9012,134.352,101.045,101.396,0.00649116,0.151542,20.8365,63.8302,-0.0316252,0.0,0.0
616,153.75,45.2719,49.6724,137.735,101.069,101.393,0.00653453,0.15123,20.8364,63.7601,-0.0291517,0.0,0.0
620,154.75,45.3223,50.245,134.599,101.067,101.279,0.00658486,0.150824,20.8363,63.7501,-0.0191664,0.0,0.0
624,155.75,45.745,49.4083,138.74,101.059,101.395,0.00661952,0.150634,20.8362,63.66,-0.0301566,0.0,0.0
628,156.75,45.5242,49.7497,137.239,101.059,101.375,0.00661465,0.150627,20.8368,63.61,-0.0284835,0.0,0.0
632,157.75,44.3795,49.8424,135.436,101.07,101.173,0.00655398,0.15054,20.8373,63.61,-0.00929856,0.0,0.0
636,158.75,45.7311,49.6279,137.638,101.059,101.337,0.00647283,0.150333,20.8377,63.5499,-0.0250652,0.0,0.0
640,159.75,45.3231,49.3941,136.844,101.061,101.373,0.00641323,0.150041,20.8384,63.4899,-0.0280456,0.0,0.0
644,160.75,44.8537,49.4196,135.318,101.069,101.395,0.00637407,0.149876,20.8389,63.4498,-0.0293984,0.0,0.0
648,161.75,45.1378,49.737,139.767,101.065,101.354,0.00635449,0.149899,20.8387,63.4398,-0.0259918,0.0,0.0
652,162.75,45.1418,49.9609,134.291,101.064,101.379,0.00634854,0.149949,20.8386,63.3297,-0.028319,0.0,0.0
656,163.75,45.4468,49.4626,135.113,101.068,101.194,0.00634952,0.149905,20.8385,63.3097,-0.0113335,0.0,0.0
660,164.75,45.5186,48.7313,139.459,101.069,101.27,0.00636854,0.149815,20.8385,63.2596,-0.0181023,0.0,0.0
664,165.75,45.1022,49.7135,137.466,101.065,101.331,0.00642293,0.149646,20.8385,63.1896,-0.0239519,0.0,0.0
668,166.75,45.5162,50.1287,134.849,101.063,101.307,0.00650662,0.149361,20.8385,63.1696,-0.0219719,0.0,0.0
672,167.75,45.1117,49.1822,136.675,101.071,101.296,0.0065871,0.149067,20.8385,63.1295,-0.0202469,0.0,0.0
676,168.75,45.2621,49.7,133.74,101.061,101.552,0.00661869,0.148779,20.8385,63.1095,-0.0441573,0.0,0.0
680,169.75,45.2055,49.712,139.532,101.075,101.523,0.00658065,0.148657,20.839,63.0194,-0.0402734,0.0,0.0
684,170.75,45.1105,49.7556,138.645,101.084,101.376,0.0065002,0.148746,20.8397,62.9694,-0.0262738,0.0,0.0
688,171.75,45.6867,49.5796,137.069,101.083,101.418,0.0064262,0.148976,20.8396,62.9093,-0.0301768,0.0,0.0
692,172.75,45.1504,49.6481,138.441,101.077,101.378,0.00638916,0.149068,20.8393,62.9193,-0.0270872,0.0,0.0
696,173.75,45.7709,49.8317,134.167,101.078,101.401,0.00637617,0.148933,20.839,62.8493,-0.0291359,0.0,0.0
700,174.75,46.0909,49.6637,138.37,101.086,101.317,0.00638143,0.148594,20.8389,62.7592,-0.0207432,0.0,0.0
704,175.75,45.0345,50.1073,133.792,101.09,101.414,0.00640556,0.148242,20.8388,62.7492,-0.029155,0.0,0.0
708,176.75,45.2311,49.8269,137.261,101.091,101.448,0.00647428,0.148097,20.8393,62.7091,-0.032157,0.0,0.0
712,177.75,45.482,49.1341,137.831,101.079,101.249,0.0065976,0.148043,20.8399,62.6491,-0.0152643,0.0,0.0
716,178.75,45.3805,50.2969,141.829,101.07,101.331,0.00672753,0.14798,20.8402,62.6391,-0.0234485,0.0,0.0
720,179.75,45.0508,49.9686,137.359,101.076,101.31,0.00684957,0.147919,20.8405,62.599,-0.0209978,0.0,0.0
724,180.75,45.1833,49.1134,135.594,101.065,101.293,0.00694605,0.147632,20.8406,62.529,-0.0205326,0.0,0.0
728,181.75,45.0924,50.0713,137.472,101.067,101.339,0.00703389,0.147428,20.8407,62.4489,-0.0244696,0.0,0.0
732,182.75,45.1385,49.346,137.406,101.046,101.294,0.00710305,0.147115,20.8408,62.3788,-0.0223349,0.0,0.0
736,183.75,44.0729,48.5347,132.869,101.047,101.423,0.00716661,0.146718,20.8408,62.3388,-0.0338085,0.0,0.0
740,184.75,45.5208,49.8266,133.627,101.047,101.398,0.00724049,0.146322,20.8413,62.2787,-0.0316389,0.0,0.0
744,185.75,45.1447,49.6857,137.932,101.047,101.298,0.00730541,0.146124,20.8419,62.2887,-0.022637,0.0,0.0
748,186.75,45.3699,49.8026,132.13,101.028,101.385,0.00735226,0.146014,20.8424,62.2887,-0.0321177,0.0,0.0
752,187.75,45.3432,49.7539,138.78,101.043,101.461,0.00737839,0.145915,20.8427,62.2087,-0.0376106,0.0,0.0
756,188.75,45.4414,49.8131,136.736,101.015,101.085,0.0073914,0.145809,20.8429,62.1886,-0.00630193,0.0,0.0
760,189.75,44.9051,49.7925,139.582,100.999,101.154,0.00739447,0.145643,20.8428,62.1486,-0.0139413,0.0,0.0
764,190.75,45.4183,49.7289,139.574,101.004,101.401,0.0073732,0.145534,20.8426,62.1086,-0.0357142,0.0,0.0
768,191.75,44.6092,49.7062,135.819,100.992,101.543,0.00732791,0.145454,20.8425,62.0785,-0.0496116,0.0,0.0
772,192.75,45.0716,49.458,136.11,100.995,101.311,0.00726968,0.145382,20.8426,62.0085,-0.0283931,0.0,0.0
776,193.75,45.4618,50.0059,135.309,100.981,101.363,0.00721058,0.1455,20.8433,61.9384,-0.0343681,0.0,0.0
780,194.75,45.3987,49.8047,139.163,100.957,101.169,0.00716363,0.145532,20.8437,61.9184,-0.0190696,0.0,0.0
784,195.75,45.5767,49.6217,135.466,100.95,101.274,0.00713052,0.145396,20.844,61.8984,-0.0292002,0.0,0.0
788,196.75,45.3636,49.5821,136.856,100.938,101.322,0.0071065,0.144887,20.8442,61.8383,-0.0345272,0.0,0.0
792,197.75,45.584,49.5977,138.008,100.924,101.259,0.0070762,0.14421,20.8443,61.8083,-0.030119,0.0,0.0
796,198.75,45.1794,49.7663,137.255,100.916,101.301,0.00703244,0.143727,20.8444,61.7082,-0.0346814,0.0,0.0
800,199.75,45.1792,49.7394,137.257,100.894,101.17,0.00697658,0.143548,20.8451,61.6782,-0.0249089,0.0,0.0
804,200.75,45.4784,50.1519,136.635,100.883,101.811,0.00689054,0.143528,20.8457,61.6081,-0.0833946,0.0,0.0
808,201.75,45.2705,49.6457,136.408,100.875,101.325,0.00679763,0.143597,20.8461,61.6081,-0.0405728,0.0,0.0
812,202.75,45.2586,50.0179,138.805,100.846,100.984,0.00666565,0.143729,20.8463,61.5881,-0.0124805,0.0,0.0
816,203.75,45.3732,49.9623,134.83,100.839,101.237,0.00655298,0.144036,20.8465,61.518,-0.0359028,0.0,0.0
820,204.75,45.4024,49.4094,135.448,100.843,101.113,0.00647217,0.144437,20.8466,61.478,-0.0244114,0.0,0.0
824,205.75,45.7293,49.4299,136.524,100.862,101.017,0.00642604,0.144773,20.8463,61.478,-0.013993,0.0,0.0
828,206.75,45.3779,49.0483,134.983,100.85,101.018,0.00639577,0.144864,20.8457,61.4379,-0.0151882,0.0,0.0
832,207.75,45.5325,49.4256,137.334,100.851,101.343,0.00637953,0.144748,20.8453,61.3879,-0.0443428,0.0,0.0
836,208.75,45.3659,50.1605,133.59,100.865,101.237,0.00638889,0.144507,20.845,61.3278,-0.0335284,0.0,0.0
840,209.75,45.8013,49.3242,138.828,100.865,101.035,0.00641915,0.144457,20.8448,61.2778,-0.0153519,0.0,0.0
844,210.75,45.3783,49.6294,136.945,100.881,101.081,0.00646822,0.144432,20.8447,61.2578,-0.0179957,0.0,0.0
848,211.75,45.5163,49.8591,133.532,100.886,101.18,0.00651998,0.14441,20.8451,61.1477,-0.0265112,0.0,0.0
852,212.75,45.2697,49.6194,135.86,100.898,101.196,0.00659565,0.144203,20.8458,61.1376,-0.0268645,0.0,0.0
856,213.75,45.7735,49.5332,137.209,100.904,101.112,0.00667687,0.144012,20.8464,61.0976,-0.0188444,0.0,0.0
860,214.75,45.7166,49.545,134.514,100.926,101.271,0.00674537,0.14397,20.8468,61.0776,-0.0310118,0.0,0.0
864,215.75,45.3614,50.0741,138.712,100.923,101.245,0.00678928,0.143911,20.847,61.0876,-0.0290205,0.0,0.0
868,216.75,45.1677,49.8764,135.24,100.939,101.288,0.00679967,0.143808,20.8472,61.0075,-0.0314863,0.0,0.0
872,217.75,45.0894,49.8165,138.274,100.972,101.141,0.00679268,0.143588,20.8473,60.9575,-0.0152263,0.0,0.0
876,218.75,45.3718,49.992,138.679,100.96,101.41,0.00675817,0.143201,20.8474,60.8974,-0.0404964,0.0,0.0
880,219.75,45.2925,49.6897,137.54,100.988,101.37,0.00671022,0.142775,20.8474,60.8674,-0.0343812,0.0,0.0
884,220.75,45.5235,50.0448,137.472,100.991,101.291,0.00667186,0.142381,20.8474,60.8374,-0.0270627,0.0,0.0
888,221.75,45.6064,49.5885,136.051,100.995,101.39,0.00664669,0.142041,20.8475,60.7773,-0.0356014,0.0,0.0
892,222.75,45.5928,50.0871,135.852,101.017,101.671,0.00662383,0.141798,20.8475,60.7473,-0.0587872,0.0,0.0
896,223.75,46.0059,49.9092,138.045,101.036,101.575,0.00659479,0.141585,20.8483,60.6972,-0.0484544,0.0,0.0
900,224.75,45.8605,49.6928,136.428,101.033,101.286,0.0065565,0.141307,20.8488,60.6572,-0.0227365,0.0,0.0
904,225.75,45.2374,50.6824,133.185,101.055,101.339,0.00650205,0.14106,20.8492,60.5971,-0.0255764,0.0,0.0
908,226.75,45.959,49.8983,140.013,101.061,101.296,0.00642038,0.140967,20.8494,60.5871,-0.0211268,0.0,0.0
912,227.75,45.2815,50.152,136.558,101.078,101.518,0.00634384,0.14093,20.8495,60.5371,-0.0395542,0.0,0.0
916,228.75,45.5347,49.7554,136.843,101.09,101.501,0.00628444,0.140905,20.8496,60.497,-0.0369771,0.0,0.0
920,229.75,45.4825,49.654,135.942,101.093,101.303,0.00623462,0.140905,20.8497,60.457,-0.0188411,0.0,0.0
924,230.75,46.0196,49.4048,137.299,101.124,101.424,0.00620282,0.140943,20.8497,60.417,-0.0270083,0.0,0.0
928,231.75,45.1728,49.5153,140.397,101.143,101.5,0.00619644,0.141114,20.8498,60.3969,-0.0321537,0.0,0.0
932,232.75,45.3879,49.7774,135.842,101.14,101.488,0.00621038,0.141237,20.8498,60.3469,-0.0312973,0.0,0.0
936,233.75,45.3798,49.5027,139.408,101.154,101.543,0.00621768,0.141266,20.8498,60.3269,-0.0349888,0.0,0.0
940,234.75,45.7529,49.8194,132.136,101.179,101.738,0.00621953,0.14122,20.8498,60.2768,-0.0501913,0.0,0.0
944,235.75,45.2903,48.636,133.497,101.181,101.362,0.00620316,0.141178,20.8498,60.1868,-0.0162612,0.0,0.0
948,236.75,45.5385,49.7219,138.018,101.2,101.57,0.00618755,0.140794,20.8498,60.1767,-0.033196,0.0,0.0
952,237.75,45.6491,49.6223,138.185,101.214,101.438,0.00615436,0.1403,20.8498,60.1267,-0.0201485,0.0,0.0
956,238.75,45.232,50.0611,135.366,101.228,101.485,0.00607297,0.139732,20.8498,60.0867,-0.0230174,0.0,0.0
960,239.75,45.4516,49.7606,135.697,101.242,101.51,0.00594397,0.139258,20.8498,60.1067,-0.0240799,0.0,0.0
964,240.75,45.5144,49.5474,140.549,101.252,101.597,0.00577466,0.139003,20.8502,60.0466,-0.0310271,0.0,0.0
968,241.75,43.657,49.1633,134.001,101.261,101.433,0.00560954,0.13893,20.8509,59.9665,-0.0154949,0.0,0.0
972,242.75,45.4037,49.7483,132.971,101.278,101.682,0.00547587,0.139017,20.8513,59.9365,-0.0362238,0.0,0.0
976,243.75,45.7087,49.5357,136.566,101.296,101.473,0.00540673,0.139239,20.8516,59.9365,-0.0158642,0.0,0.0
980,244.75,44.9176,49.4188,134.144,101.307,101.843,0.00539604,0.139363,20.8518,59.9165,-0.0479965,0.0,0.0
984,245.75,45.6134,49.9408,137.876,101.321,101.735,0.00544788,0.139247,20.8519,59.8765,-0.0371418,0.0,0.0
988,246.75,45.4843,49.5888,136.194,101.353,101.795,0.00552246,0.139044,20.8522,59.8464,-0.0396414,0.0,0.0
992,247.75,45.675,49.6508,134.14,101.357,101.913,0.00564698,0.138825,20.8525,59.7964,-0.0497955,0.0,0.0
996,248.75,45.3737,49.6274,133.474,101.374,101.967,0.00575939,0.138576,20.8527,59.7463,-0.0531194,0.0,0.0
1000,249.75,45.749,49.5593,136.165,101.381,101.693,0.00584321,0.138296,20.8528,59.7463,-0.0280249,0.0,0.0
1004,250.75,45.3244,49.5811,134.32,101.393,102.133,0.00587716,0.138084,20.8528,59.7163,-0.0663001,0.0,0.0
1008,251.75,45.5127,49.7466,134.785,101.429,101.907,0.00587133,0.138097,20.8529,59.6863,-0.04281,0.0,0.0
1012,252.75,45.2841,49.806,131.661,101.431,101.914,0.00584017,0.138232,20.8529,59.6162,-0.0432414,0.0,0.0
1016,253.75,45.9474,49.8135,139.42,101.458,102.017,0.00583048,0.138344,20.8529,59.6062,-0.0500767,0.0,0.0
1020,254.75,45.3435,49.1923,138.127,101.471,101.92,0.00585824,0.138417,20.853,59.5962,-0.0401954,0.0,0.0
1024,255.75,45.5091,50.0971,134.751,101.501,101.773,0.00595673,0.138541,20.853,59.4961,-0.0242976,0.0,0.0
1028,256.75,45.803,50.0564,136.426,101.501,101.786,0.00607644,0.138683,20.853,59.4961,-0.025498,0.0,0.0
1032,257.75,45.2817,49.9211,138.11,101.533,101.962,0.00615498,0.138941,20.853,59.406,-0.0384419,0.0,0.0
1036,258.75,45.6305,50.212,140.746,101.546,101.873,0.00621737,0.139046,20.853,59.416,-0.0293391,0.0,0.0
1040,259.75,45.6089,50.0029,138.24,101.558,101.87,0.00623409,0.138912,20.8525,59.376,-0.0280249,0.0,0.0
1044,260.75,45.4586,49.7728,136.743,101.585,101.808,0.00621243,0.138636,20.8521,59.366,-0.0200271,0.0,0.0
1048,261.75,45.1256,49.3054,136.993,101.597,102.012,0.00617151,0.138201,20.8519,59.346,-0.0371238,0.0,0.0
1052,262.75,45.2509,50.0005,135.762,101.62,102.133,0.00611582,0.137682,20.8518,59.3059,-0.0458301,0.0,0.0
1056,263.75,45.2283,50.0868,135.857,101.627,102.191,0.00604768,0.137244,20.8525,59.2459,-0.0504741,0.0,0.0
1060,264.75,45.2067,49.6156,139.907,101.651,101.964,0.0059835,0.137039,20.8529,59.2359,-0.0280233,0.0,0.0
1064,265.75,45.5979,49.989,139.997,101.664,101.986,0.00591052,0.136706,20.8532,59.1958,-0.028832,0.0,0.0
1068,266.75,45.8301,49.622,136.026,101.69,102.025,0.00583738,0.136162,20.8534,59.1858,-0.0300292,0.0,0.0
1072,267.75,45.568,50.0275,133.609,101.697,102.006,0.00577136,0.135654,20.8534,59.1658,-0.0276432,0.0,0.0
1076,268.75,45.1599,49.6196,135.219,101.714,102.037,0.00569974,0.13525,20.8532,59.0957,-0.0288582,0.0,0.0
1080,269.75,45.3894,50.0357,136.948,101.715,102.01,0.00561941,0.134868,20.8536,58.9956,-0.0264192,0.0,0.0
1084,270.75,45.7411,49.6553,133.398,101.735,101.969,0.00553962,0.134521,20.8542,58.9956,-0.0209478,0.0,0.0
1088,271.75,45.6025,49.4412,136.347,101.747,102.133,0.00549349,0.134341,20.8545,58.9756,-0.0345011,0.0,0.0
1092,272.75,45.1551,49.3735,141.148,101.745,101.938,0.00544872,0.134067,20.8547,58.9856,-0.0172967,0.0,0.0
1096,273.75,45.4978,49.8788,136.719,101.762,101.883,0.00541573,0.133687,20.8549,58.8155,-0.0108839,0.0,0.0
1100,274.75,45.1023,49.2183,137.144,101.771,102.273,0.00539852,0.133176,20.855,58.8155,-0.0447749,0.0,0.0
1104,275.75,45.7399,49.7405,138.085,101.776,102.119,0.00540993,0.132677,20.8551,58.8355,-0.0306719,0.0,0.0
1108,276.75,45.2282,49.5699,134.829,101.789,101.926,0.00548255,0.132368,20.8556,58.7754,-0.0122282,0.0,0.0
1112,277.75,45.2242,49.7325,134.265,101.777,102.044,0.00561651,0.132116,20.8563,58.7654,-0.0238561,0.0,0.0
1116,278.75,45.4282,49.4476,139.092,101.766,102.089,0.00574839,0.131569,20.8567,58.7654,-0.0288947,0.0,0.0
1120,279.75,45.6072,49.1868,135.501,101.764,102.25,0.0059057,0.130974,20.857,58.6953,-0.0433969,0.0,0.0
1124,280.75,45.3187,49.7285,133.827,101.75,101.993,0.00602682,0.13052,20.8572,58.6853,-0.0216922,0.0,0.0
1128,281.75,45.4109,49.8366,134.575,101.751,102.233,0.00610248,0.130277,20.8578,58.6853,-0.0430489,0.0,0.0
1132,282.75,45.7369,48.9824,138.995,101.729,101.892,0.00614904,0.130461,20.8593,58.6553,-0.0146373,0.0,0.0
1136,283.75,45.1051,49.3878,136.651,101.724,101.961,0.00619587,0.130819,20.8602,58.5752,-0.0211937,0.0,0.0
1140,284.75,45.0721,49.538,140.665,101.701,101.985,0.00624494,0.131209,20.8608,58.5552,-0.0254773,0.0,0.0
1144,285.75,45.6435,48.7001,141.396,101.686,102.155,0.00628844,0.131422,20.8606,58.5852,-0.0419187,0.0,0.0
1148,286.75,45.2587,49.0106,136.9,101.668,102.038,0.00631698,0.131476,20.8603,58.5552,-0.033087,0.0,0.0
1152,287.75,45.4366,49.1522,135.767,101.653,101.901,0.00629902,0.131377,20.8602,58.4952,-0.0221548,0.0,0.0
1156,288.75,45.5356,49.4386,135.961,101.636,101.885,0.00623299,0.131219,20.8603,58.4651,-0.0223458,0.0,0.0
1160,289.75,45.1164,49.454,133.66,101.598,101.881,0.00614846,0.131006,20.8604,58.3851,-0.0253227,0.0,0.0
1164,290.75,45.5373,49.0949,139.942,101.594,101.875,0.00606132,0.13079,20.8605,58.3851,-0.0252023,0.0,0.0
1168,291.75,45.4323,49.2119,137.762,101.556,101.84,0.00600101,0.130184,20.8605,58.375,-0.0254011,0.0,0.0
1172,292.75,44.8855,48.9961,132.997,101.526,101.953,0.00596554,0.129379,20.8606,58.2649,-0.0382201,0.0,0.0
1176,293.75,44.8863,49.1858,132.504,101.493,101.842,0.00597207,0.128711,20.8606,58.2449,-0.0312058,0.0,0.0
1180,294.75,45.2831,48.8052,136.243,101.479,101.751,0.00601535,0.128218,20.8608,58.2149,-0.0243281,0.0,0.0
1184,295.75,44.4929,49.3669,135.479,101.424,101.747,0.00607128,0.127766,20.8618,58.1148,-0.0289524,0.0,0.0
1188,296.75,44.8004,49.1968,134.718,101.388,101.587,0.00611486,0.127272,20.863,58.2049,-0.017937,0.0,0.0
1192,297.75,45.26,49.1038,137.932,101.364,101.479,0.00612713,0.126581,20.8637,58.1849,-0.0103393,0.0,0.0
1196,298.75,45.2276,48.6724,142.11,101.318,101.594,0.00611811,0.125896,20.864,58.1248,-0.0247739,0.0,0.0
1200,299.75,44.7669,48.9758,142.155,101.282,101.398,0.00610192,0.125254,20.8641,58.0948,-0.0104149,0.0,0.0
1204,300.75,44.9486,48.6311,138.504,101.243,101.614,0.0060569,0.124844,20.8644,58.0748,-0.0333289,0.0,0.0
1208,301.75,45.0284,48.5572,135.625,101.198,102.22,0.00602278,0.124834,20.8652,58.1048,-0.0915185,0.0,0.0
1212,302.75,44.9116,48.5629,137.367,101.16,101.415,0.00600942,0.125018,20.8657,58.0447,-0.0229624,0.0,0.0
1216,303.75,45.0994,48.7457,136.384,101.12,101.313,0.00601213,0.125284,20.8661,57.9647,-0.0174284,0.0,0.0
1220,304.75,44.7081,49.2686,139.087,101.076,101.241,0.006017,0.125507,20.8657,57.9747,-0.0148195,0.0,0.0
1224,305.75,45.0101,48.3214,140.994,101.026,101.133,0.00602249,0.125697,20.8655,57.9847,-0.00964909,0.0,0.0
1228,306.75,44.8601,47.6828,137.988,100.973,101.198,0.00602772,0.125747,20.8655,57.9346,-0.0203247,0.0,0.0
1232,307.75,44.8721,48.3878,137.522,100.937,101.321,0.00604566,0.125757,20.8656,57.9046,-0.0345626,0.0,0.0
1236,308.75,44.7954,48.867,139.548,100.892,101.261,0.00607528,0.125358,20.8657,57.9046,-0.0332439,0.0,0.0
1240,309.75,44.9558,48.2746,139.023,100.838,101.118,0.00612003,0.125042,20.866,57.9046,-0.0252889,0.0,0.0
1244,310.75,44.5655,48.7721,138.612,100.786,101.001,0.00619093,0.124814,20.8662,57.8445,-0.0194346,0.0,0.0
1248,311.75,44.9521,48.7094,137.361,100.754,100.838,0.00625336,0.124598,20.8663,57.7545,-0.0076564,0.0,0.0
1252,312.75,44.5675,48.0965,140.111,100.695,100.961,0.00628944,0.124362,20.8664,57.7344,-0.0240918,0.0,0.0
1256,313.75,45.1773,48.8729,139.053,100.65,100.925,0.00629703,0.124179,20.8664,57.7545,-0.0248991,0.0,0.0
1260,314.75,44.8294,47.9731,136.485,100.602,101.024,0.00629115,0.124079,20.8665,57.6143,-0.0380789,0.0,0.0
1264,315.75,44.8568,48.584,134.649,100.573,100.815,0.00628256,0.12404,20.8669,57.7144,-0.0218892,0.0,0.0
1268,316.75,44.635,48.3733,136.16,100.517,100.896,0.00628406,0.123688,20.8676,57.6644,-0.0342215,0.0,0.0
1272,317.75,44.8794,48.1968,136.709,100.464,100.852,0.00630643,0.123213,20.8683,57.6744,-0.0350537,0.0,0.0
1276,318.75,44.7603,48.6129,137.344,100.41,100.645,0.00634991,0.122792,20.8692,57.6243,-0.0213597,0.0,0.0
1280,319.75,45,48.6388,139.459,100.388,100.773,0.00640702,0.122423,20.8696,57.6243,-0.0349038,0.0,0.0
1284,320.75,45.029,48.3713,137.972,100.348,100.611,0.00645684,0.122088,20.8698,57.6243,-0.0237984,0.0,0.0
1288,321.75,44.7579,48.8861,137.709,100.3,100.511,0.00650039,0.121776,20.8706,57.5843,-0.0190832,0.0,0.0
1292,322.75,44.4906,47.6153,137.608,100.269,100.465,0.00654821,0.12147,20.8713,57.5342,-0.0178168,0.0,0.0
1296,323.75,44.8138,48.4412,135.187,100.233,100.447,0.00659847,0.121157,20.8718,57.5342,-0.0194134,0.0,0.0
1300,324.75,44.6807,48.2653,135.544,100.206,100.574,0.00664986,0.120754,20.8721,57.5242,-0.0334439,0.0,0.0
1304,325.75,42.9518,48.1927,137.679,100.159,100.749,0.00669473,0.120328,20.8723,57.4742,-0.0534345,0.0,0.0
1308,326.75,44.664,48.5379,135.66,100.126,100.503,0.0067274,0.120029,20.8724,57.4342,-0.0342324,0.0,0.0
1312,327.75,44.7913,47.9196,136.616,100.12,100.545,0.00674986,0.120077,20.8725,57.4241,-0.0385592,0.0,0.0
1316,328.75,44.0431,48.0904,138.472,100.086,100.39,0.00674044,0.120705,20.8724,57.4742,-0.0276819,0.0,0.0
1320,329.75,44.833,48.3263,135.458,100.063,100.375,0.006708,0.121567,20.872,57.4141,-0.0283838,0.0,0.0
1324,330.75,44.4803,48.5664,140.475,100.041,100.42,0.00667041,0.12236,20.8718,57.3541,-0.0345141,0.0,0.0
1328,331.75,44.5675,48.2435,134.756,100.026,100.284,0.00662734,0.122999,20.871,57.3841,-0.0235312,0.0,0.0
1332,332.75,44.793,48.1718,137.764,100.009,100.256,0.00657735,0.123537,20.8703,57.3441,-0.0224274,0.0,0.0
1336,333.75,44.895,47.886,137.463,100.008,100.12,0.00654176,0.123836,20.8699,57.3341,-0.0101871,0.0,0.0
1340,334.75,44.3373,48.1676,136.466,100.004,100.307,0.00653144,0.123872,20.8688,57.304,-0.0275686,0.0,0.0
1344,335.75,44.4383,47.8583,135.31,100.001,100.368,0.00658993,0.123597,20.8681,57.284,-0.0333938,0.0,0.0
1348,336.75,43.8627,48.2625,139.24,100.015,100.321,0.00669122,0.123205,20.8676,57.274,-0.0278267,0.0,0.0
1352,337.75,44.5793,48.1063,136.625,100.021,100.192,0.00678803,0.122703,20.8673,57.254,-0.0155308,0.0,0.0
1356,338.75,44.341,47.7181,139.026,100.017,100.178,0.00684736,0.122075,20.8671,57.2039,-0.0146906,0.0,0.0
1360,339.75,43.9913,48.0001,139.648,100.04,100.195,0.0068622,0.1213,20.8672,57.2039,-0.0141208,0.0,0.0
1364,340.75,44.0805,47.998,135.089,100.063,100.389,0.00683407,0.120504,20.8678,57.1839,-0.0296076,0.0,0.0
1368,341.75,44.2958,48.156,137.419,100.09,100.292,0.00679913,0.119967,20.869,57.1639,-0.0183683,0.0,0.0
1372,342.75,44.2166,47.8013,131.37,100.107,100.366,0.00678528,0.119618,20.8698,57.1139,-0.0235225,0.0,0.0
1376,343.75,44.1494,47.6747,136.665,100.148,100.464,0.00682399,0.119404,20.8703,57.1439,-0.0286915,0.0,0.0
1380,344.75,44.1307,47.899,138.78,100.17,100.361,0.00689792,0.119206,20.8707,57.0938,-0.0173386,0.0,0.0
1384,345.75,44.4505,48.173,134,100.218,100.457,0.00696527,0.118805,20.8709,57.1139,-0.0217319,0.0,0.0
1388,346.75,44.5159,48.2562,137.814,100.251,100.496,0.00700044,0.118217,20.8711,57.1038,-0.02217,0.0,0.0
1392,347.75,44.2957,48.3673,137.469,100.283,100.419,0.00700622,0.117742,20.8711,57.0838,-0.0123337,0.0,0.0
1396,348.75,44.4244,48.1067,136.369,100.324,100.452,0.0070088,0.117068,20.8712,57.0738,-0.0116226,0.0,0.0
1400,349.75,44.2192,47.8976,137.541,100.373,100.53,0.00706814,0.116508,20.8719,57.1038,-0.0142524,0.0,0.0
1404,350.75,43.9905,48.0943,136.4,100.398,100.618,0.00717868,0.116009,20.8725,57.0738,-0.0199232,0.0,0.0
1408,351.75,44.4338,47.8015,136.963,100.444,100.516,0.00727405,0.11549,20.8729,57.0238,-0.00651978,0.0,0.0
1412,352.75,44.0471,47.6561,135.547,100.488,100.774,0.00740241,0.114948,20.8747,56.9537,-0.0259379,0.0,0.0
1416,353.75,43.7495,47.735,136.744,100.544,100.909,0.00751122,0.114322,20.876,56.9237,-0.03305,0.0,0.0
1420,354.75,42.8311,45.7746,139.911,100.588,100.816,0.007615,0.113641,20.8768,56.9037,-0.0205919,0.0,0.0
1424,355.75,42.3252,45.9736,138.496,100.647,100.834,0.00769697,0.112932,20.8779,56.9237,-0.0168785,0.0,0.0
1428,356.75,42.6685,46.0563,136.106,100.681,100.915,0.00776169,0.112122,20.8788,56.9137,-0.021135,0.0,0.0
1432,357.75,42.0744,45.3519,141.91,100.728,100.848,0.00782117,0.111051,20.8794,56.8536,-0.0108366,0.0,0.0
1436,358.75,42.1956,45.6815,139.958,100.776,100.817,0.00789079,0.109862,20.8801,56.8636,-0.00365333,0.0,0.0
1440,359.75,42.6941,45.6687,140.588,100.81,100.92,0.00797633,0.108571,20.8811,56.8436,-0.00996539,0.0,0.0
1444,360.75,42.1389,45.4806,138.599,100.841,101.027,0.0080803,0.107615,20.8819,56.7936,-0.0167474,0.0,0.0
1448,361.75,42.2822,45.7591,139.502,100.873,101.125,0.00818669,0.106916,20.8831,56.7135,-0.0227365,0.0,0.0
1452,362.75,41.4687,45.7626,141.698,100.902,100.946,0.00826895,0.106253,20.8835,56.6434,-0.00394553,0.0,0.0
1456,363.75,41.8554,45.0606,140.079,100.931,101.149,0.00834304,0.105661,20.8838,56.7235,-0.0196501,0.0,0.0
1460,364.75,42.1977,45.3557,142.852,100.963,101.257,0.00841352,0.105084,20.884,56.7735,-0.0264262,0.0,0.0
1464,365.75,41.4924,45.5447,135.731,101.004,101.302,0.00848433,0.104686,20.8841,56.8036,-0.0267965,0.0,0.0
1468,366.75,41.7666,45.2616,141.565,101.007,101.276,0.00854353,0.10431,20.8842,56.7235,-0.0242339,0.0,0.0
1472,367.75,41.9103,45.2928,139.688,101.042,101.351,0.00857312,0.103861,20.8845,56.7235,-0.0278507,0.0,0.0
1476,368.75,41.9747,45.2825,140.33,101.059,101.439,0.00860039,0.103234,20.8853,56.7435,-0.0341943,0.0,0.0
1480,369.75,41.9979,44.9444,136.355,101.083,101.571,0.00861932,0.102681,20.8858,56.7335,-0.0438349,0.0,0.0
1484,370.75,41.6218,44.8546,136.311,101.106,101.431,0.00861316,0.102342,20.8861,56.7035,-0.0292775,0.0,0.0
1488,371.75,42.2218,45.4902,137.602,101.117,101.74,0.00859982,0.102273,20.8863,56.7435,-0.0559823,0.0,0.0
1492,372.75,41.6541,45.0256,137.315,101.127,101.185,0.00861304,0.102323,20.8864,56.7535,-0.00526054,0.0,0.0
1496,373.75,41.8891,45.0241,140.725,101.144,101.576,0.00865844,0.102572,20.8865,56.6935,-0.0388219,0.0,0.0
1500,374.75,41.9895,45.2883,139.248,101.157,101.4,0.00871318,0.102711,20.8866,56.6134,-0.0218582,0.0,0.0
1504,375.75,41.8856,44.8445,142.364,101.164,101.505,0.008777,0.102667,20.8861,56.6334,-0.0306621,0.0,0.0
1508,376.75,41.8665,45.6266,134.141,101.163,101.558,0.0088119,0.102447,20.8856,56.6834,-0.0354401,0.0,0.0
1512,377.75,41.9917,45.4428,137.198,101.171,101.501,0.00884765,0.102223,20.8852,56.6734,-0.0295951,0.0,0.0
1516,378.75,41.6489,45.2427,138.205,101.19,101.506,0.00893038,0.10216,20.885,56.6234,-0.02841,0.0,0.0
1520,379.75,41.8404,45.4663,140.534,101.183,101.446,0.00908349,0.10212,20.8849,56.6134,-0.0236537,0.0,0.0
1524,380.75,41.8448,44.574,136.024,101.188,101.45,0.00926859,0.102131,20.8848,56.6134,-0.0235285,0.0,0.0
1528,381.75,42.112,45.1404,139.69,101.193,101.247,0.00947946,0.102077,20.8847,56.5533,-0.00492701,0.0,0.0
1532,382.75,41.7335,45.2598,138.988,101.199,101.311,0.00967167,0.101848,20.8847,56.5934,-0.0100659,0.0,0.0
1536,383.75,41.4235,45.103,138.255,101.205,101.213,0.00976277,0.10159,20.8848,56.6134,-0.000730765,0.0,0.0
1540,384.75,42.0694,45.1933,138.305,101.206,101.45,0.00975764,0.101152,20.885,56.6134,-0.0219197,0.0,0.0
1544,385.75,41.5598,44.4583,139.224,101.209,101.512,0.00967969,0.100653,20.8854,56.6034,-0.0272305,0.0,0.0
1548,386.75,40.9767,44.9008,141.883,101.203,101.636,0.00959842,0.100099,20.8862,56.5934,-0.0389135,0.0,0.0
1552,387.75,41.4504,44.7924,137.973,101.221,101.498,0.00952751,0.099479,20.8867,56.6234,-0.0249116,0.0,0.0
1556,388.75,41.6511,44.8985,141.419,101.208,101.324,0.00947098,0.0988035,20.8879,56.6134,-0.0104757,0.0,0.0
1560,389.75,41.6311,44.9114,135.069,101.213,101.533,0.00941478,0.0981977,20.8887,56.5934,-0.028759,0.0,0.0
1564,390.75,41.6394,44.9183,136.147,101.203,101.441,0.00935147,0.0977273,20.8891,56.4833,-0.0214364,0.0,0.0
1568,391.75,41.1319,44.4076,139.798,101.214,101.428,0.00923077,0.0973826,20.8901,56.5033,-0.0192388,0.0,0.0
1572,392.75,41.5103,44.6284,142.636,101.201,101.525,0.00908553,0.0971002,20.8909,56.4833,-0.0290842,0.0,0.0
1576,393.75,41.4832,44.6072,137.262,101.199,101.451,0.00893141,0.0969417,20.8913,56.4532,-0.0226555,0.0,0.0
1580,394.75,41.5855,44.5107,138.42,101.205,101.534,0.00877906,0.0968588,20.8914,56.4532,-0.0296109,0.0,0.0
1584,395.75,41.6334,44.781,138.873,101.202,101.788,0.0086697,0.0967467,20.8915,56.4332,-0.0525357,0.0,0.0
1588,396.75,40.9904,43.8006,138.31,101.192,101.571,0.00862262,0.0966773,20.8915,56.3631,-0.0340444,0.0,0.0
1592,397.75,41.4046,44.4438,137.164,101.198,101.298,0.00860835,0.0966374,20.8915,56.3431,-0.00901977,0.0,0.0
1596,398.75,41.4573,44.8336,138.994,101.192,101.484,0.00859771,0.0969064,20.8919,56.4332,-0.0261818,0.0,0.0
1600,399.75,40.6735,44.4943,140.556,101.193,101.418,0.00858294,0.0970405,20.893,56.4933,-0.0202333,0.0,0.0
1604,400.75,41.4433,44.1479,139.326,101.191,101.418,0.00855746,0.0971595,20.8938,56.4132,-0.0204211,0.0,0.0
1608,401.75,41.3382,44.5358,140.453,101.192,101.434,0.00855319,0.0972489,20.8942,56.3732,-0.0217646,0.0,0.0
1612,402.75,40.7267,44.3622,138.189,101.186,101.615,0.00859971,0.0973521,20.8939,56.4432,-0.0385717,0.0,0.0
1616,403.75,41.0438,44.5962,138.146,101.175,101.516,0.00866793,0.0974338,20.8936,56.4332,-0.0306627,0.0,0.0
1620,404.75,40.8072,43.7326,142.02,101.185,101.374,0.00876953,0.0975094,20.8934,56.3832,-0.0169628,0.0,0.0
1624,405.75,41.237,44.4644,139.875,101.184,101.569,0.00883497,0.0970761,20.8934,56.3431,-0.0346455,0.0,0.0
1628,406.75,41.0092,43.6174,140.063,101.164,101.44,0.00883899,0.0966227,20.894,56.3932,-0.0248708,0.0,0.0
1632,407.75,40.9267,43.7249,139.516,101.158,101.288,0.00881364,0.0963009,20.8944,56.3631,-0.0116928,0.0,0.0
1636,408.75,41.3406,43.7943,139.245,101.153,101.427,0.00879861,0.0961588,20.8947,56.3732,-0.0246601,0.0,0.0
1640,409.75,41.4105,43.7609,136.513,101.14,101.31,0.00883165,0.0962094,20.8949,56.3832,-0.0152589,0.0,0.0
1644,410.75,41.1897,44.3381,137.228,101.142,101.606,0.0088964,0.0963825,20.895,56.3631,-0.0416782,0.0,0.0
1648,411.75,41.2923,44.315,135.245,101.133,101.518,0.00895538,0.0965245,20.895,56.3832,-0.034616,0.0,0.0
1652,412.75,41.1731,44.447,138.757,101.151,101.311,0.00898675,0.0966176,20.8951,56.3231,-0.0143475,0.0,0.0
1656,413.75,40.8942,44.2242,140.033,101.118,101.751,0.00901178,0.0965714,20.8951,56.3031,-0.0568651,0.0,0.0
1660,414.75,41.3027,44.6105,136.129,101.117,101.401,0.00902955,0.0964606,20.8951,56.3131,-0.025578,0.0,0.0
1664,415.75,40.3744,44.1703,136.877,101.113,101.234,0.00902395,0.0964514,20.8951,56.2731,-0.0109062,0.0,0.0
1668,416.75,41.2543,44.513,139.092,101.115,101.397,0.00899468,0.0965469,20.8952,56.2631,-0.0253907,0.0,0.0
1672,417.75,40.9042,44.3356,137.28,101.122,101.203,0.00895631,0.0967128,20.8952,56.253,-0.00730975,0.0,0.0
1676,418.75,41.1888,44.0339,140.047,101.104,101.387,0.00892489,0.0968428,20.8952,56.233,-0.0253923,0.0,0.0
1680,419.75,41.4412,44.0334,142.384,101.104,101.379,0.00890893,0.0970376,20.8952,56.213,-0.0248017,0.0,0.0
1684,420.75,40.9364,44.0586,139.531,101.092,101.262,0.00892172,0.0972495,20.8949,56.253,-0.0153649,0.0,0.0
1688,421.75,40.956,43.8631,139.249,101.102,101.162,0.00894296,0.097325,20.8942,56.2631,-0.00534908,0.0,0.0
1692,422.75,40.8518,44.4161,140.204,101.081,101.115,0.00895446,0.0972518,20.8934,56.233,-0.00308579,0.0,0.0
1696,423.75,41.0058,44.1725,138.28,101.061,101.126,0.00893874,0.096985,20.8929,56.193,-0.00592436,0.0,0.0
1700,424.75,40.36,44.0065,141.34,101.064,101.222,0.00889709,0.0965959,20.8925,56.183,-0.0142632,0.0,0.0
1704,425.75,41.0106,43.7443,135.832,101.043,101.482,0.00884419,0.0961617,20.8929,56.183,-0.0394424,0.0,0.0
1708,426.75,41.1185,43.7816,138.163,101.028,101.479,0.00881334,0.0957628,20.8933,56.203,-0.0405324,0.0,0.0
1712,427.75,40.374,43.8564,138.285,101.013,101.18,0.00880906,0.0953938,20.8936,56.213,-0.0150582,0.0,0.0
1716,428.75,40.4615,43.7702,138.763,100.997,101.324,0.00883593,0.0950446,20.8938,56.233,-0.0294524,0.0,0.0
1720,429.75,40.9642,43.8175,138.508,100.963,101.55,0.00888074,0.0948577,20.8939,56.1229,-0.0528016,0.0,0.0
1724,430.75,40.4583,43.6147,137.818,100.95,101.148,0.00891342,0.094852,20.8948,55.9628,-0.0178456,0.0,0.0
1728,431.75,40.5542,43.3412,137.151,100.945,101.467,0.00890716,0.0949612,20.8954,56.1529,-0.0469951,0.0,0.0
1732,432.75,40.7756,44.3163,138.53,100.927,101.051,0.00887172,0.0951741,20.8958,56.0629,-0.0112182,0.0,0.0
1736,433.75,40.416,44.3551,136.112,100.915,101.108,0.00882832,0.0955189,20.896,56.1229,-0.0173947,0.0,0.0
1740,434.75,41.1018,43.8756,136.822,100.896,101.162,0.00880988,0.0960115,20.8962,56.163,-0.0239661,0.0,0.0
1744,435.75,40.7611,43.5359,141.531,100.864,101.111,0.008845,0.0964448,20.8961,56.173,-0.0222843,0.0,0.0
1748,436.75,41.1064,44.3773,137.931,100.859,101.044,0.00892444,0.0967501,20.8955,56.1529,-0.016687,0.0,0.0
1752,437.75,40.9414,44.0143,142.439,100.842,101.129,0.00901878,0.0969025,20.8946,56.0729,-0.0259466,0.0,0.0
1756,438.75,40.9021,43.772,137.679,100.826,100.962,0.00910919,0.0970293,20.8939,56.0428,-0.0123125,0.0,0.0
1760,439.75,40.3987,44.4586,136.709,100.807,101.079,0.00917893,0.0971125,20.8935,56.0529,-0.024579,0.0,0.0
1764,440.75,40.678,44.1578,138.238,100.805,101.033,0.00922236,0.0971523,20.8932,56.0529,-0.0205522,0.0,0.0
1768,441.75,41.105,44.4253,139.17,100.782,101.149,0.00921357,0.0971586,20.893,56.0228,-0.0330761,0.0,0.0
1772,442.75,41.0106,44.031,136.415,100.782,101.001,0.00916377,0.0971203,20.8929,56.0028,-0.0197801,0.0,0.0
1776,443.75,41.296,44.1172,137.299,100.743,100.934,0.00907159,0.097038,20.8929,56.0028,-0.0172853,0.0,0.0
1780,444.75,41.1354,43.9525,138.209,100.723,100.803,0.00899829,0.0971324,20.8928,55.9928,-0.00727443,0.0,0.0
1784,445.75,40.7302,44.3353,139.399,100.712,101.19,0.00888735,0.0973604,20.8922,55.9828,-0.0431672,0.0,0.0
1788,446.75,40.7878,44.4062,140.215,100.681,101.006,0.00880358,0.0976223,20.8915,56.0228,-0.0293407,0.0,0.0
1792,447.75,40.8073,44.0569,138.615,100.662,100.968,0.00873958,0.0976672,20.8909,56.0228,-0.0276775,0.0,0.0
1796,448.75,41.1716,44.0244,140.164,100.638,100.834,0.00867265,0.0974994,20.8913,56.0028,-0.0176857,0.0,0.0
1800,449.75,40.578,44.1552,139.618,100.619,100.871,0.00861858,0.0972306,20.8915,55.9828,-0.0228481,0.0,0.0
1804,450.75,40.9678,44.381,139.73,100.6,100.867,0.00851919,0.0967269,20.8916,55.9728,-0.0241626,0.0,0.0
1808,451.75,41.0733,43.7248,138.941,100.58,100.742,0.00838739,0.0961093,20.8918,55.9928,-0.0146955,0.0,0.0
1812,452.75,40.9376,43.6117,140.163,100.561,100.879,0.00826617,0.09544,20.8918,55.9728,-0.0287476,0.0,0.0
1816,453.75,40.5342,44.0279,140.769,100.55,100.876,0.00818663,0.0949408,20.8932,55.9327,-0.0294965,0.0,0.0
1820,454.75,39.355,43.8476,136.94,100.508,100.693,0.00816261,0.0946402,20.8944,55.8927,-0.0167082,0.0,0.0
1824,455.75,40.8964,44.2307,139.189,100.484,100.525,0.00819799,0.0945907,20.8951,55.9327,-0.00374131,0.0,0.0
1828,456.75,40.8045,43.6627,138.449,100.457,100.57,0.00829029,0.0946277,20.8957,55.8927,-0.0102388,0.0,0.0
1832,457.75,39.9715,43.6207,140.464,100.449,100.806,0.00843909,0.0947203,20.896,55.8727,-0.032291,0.0,0.0
1836,458.75,40.5302,43.9223,139.922,100.415,100.799,0.00857625,0.0948171,20.8962,55.8727,-0.0347855,0.0,0.0
1840,459.75,40.7464,43.6495,133.408,100.383,100.518,0.00868483,0.094865,20.8964,55.8727,-0.0121967,0.0,0.0
1844,460.75,40.7194,44.2946,137.755,100.416,100.824,0.0087398,0.0948584,20.8958,55.8627,-0.0370098,0.0,0.0
1848,461.75,40.4741,44.1129,139.091,100.359,100.708,0.00874248,0.0948541,20.8955,55.9127,-0.0316912,0.0,0.0
1852,462.75,40.9716,44.2909,137.836,100.342,100.646,0.00869281,0.0949049,20.8959,55.8827,-0.0275675,0.0,0.0
1856,463.75,40.8849,44.4611,139.95,100.331,100.524,0.00863022,0.0949382,20.8962,55.8827,-0.0174877,0.0,0.0
1860,464.75,40.7726,43.5548,136.23,100.301,100.654,0.00857314,0.0949389,20.8963,55.8427,-0.0319859,0.0,0.0
1864,465.75,40.5781,44.2346,137.612,100.259,100.399,0.00851536,0.0948915,20.8964,55.8226,-0.0126876,0.0,0.0
1868,466.75,40.3415,44.1271,137.996,100.256,100.551,0.00845793,0.0949546,20.8965,55.7826,-0.0267094,0.0,0.0
1872,467.75,40.2612,42.4541,140.917,100.235,100.492,0.00840052,0.0950244,20.8965,55.7726,-0.0232623,0.0,0.0
1876,468.75,40.547,43.9002,139.472,100.203,100.225,0.0083615,0.0949224,20.8966,55.8226,-0.00198395,0.0,0.0
1880,469.75,40.9715,43.8501,136.974,100.186,100.412,0.00833598,0.0948453,20.8971,55.7826,-0.0205854,0.0,0.0
1884,470.75,40.0363,43.9693,137.268,100.173,100.371,0.00832746,0.0948483,20.8967,55.7826,-0.0179979,0.0,0.0
1888,471.75,40.3491,43.6567,140.83,100.151,100.325,0.00833115,0.0948594,20.8964,55.7726,-0.0158375,0.0,0.0
1892,472.75,40.6425,43.6327,142.12,100.13,100.354,0.00832429,0.0948103,20.8962,55.7626,-0.020383,0.0,0.0
1895,473.5,40.5156,43.9258,139.414,100.115,100.284,0.00828421,0.0947176,20.8961,55.7426,-0.0153339,0.0,0.0