File: 01_Data/Cellulose_Insulation/Cone/Cellulose_Insulation_Cone_HF75Scan_230615_R2.csv
Names,Time,Stack TC,Smoke TC,Exh Press,Smoke Comp,Smoke Meas,CO Meter,CO2 Meter,O2 Meter,Sample Mass,Ext Coeff,Start Test,Flame Verif
Chan Gain,,500,500,1,1,1,1,1,1,1,1,1.0,1.0
Offset,,0,0,0.245636,0,0,0,0,0,0,0,0.0,0.0
Gain,,1,1,25.011,13.8344,15.0336,1,1,1,1.00094,1.03834,1.0,1.0
Units,sec,C,C,Pa,%,%,%,%,%,g,/m,,
Baseline,,44.5118,48.2178,137.965,100.173,100.232,0.000313675,0.0476125,20.9593,-445.534,-0.00533453,,
4,0.75,43.4989,45.0194,132.101,99.8821,99.3006,0.000304897,0.0545885,20.9514,76.7824,0.0531827,1.0,0.0
8,1.75,41.7001,43.3889,119.11,99.8808,101.019,0.000196072,0.054628,20.9513,76.4321,-0.103223,0.0,1.0
12,2.75,41.5485,45.003,115.486,99.8791,100.349,0.000131344,0.0547661,20.9513,76.2019,-0.0427821,0.0,1.0
16,3.75,43.7743,48.8467,114.777,99.8968,99.7538,0.000109772,0.0549886,20.9513,76.0017,0.0130462,0.0,1.0
20,4.75,45.0104,52.176,115.173,99.9129,97.7434,0.000124198,0.0551346,20.9513,75.6613,0.19995,0.0,1.0
24,5.75,45.9884,55.5329,117.239,99.9239,98.4949,0.000165327,0.0551588,20.9513,75.3711,0.13119,0.0,1.0
28,6.75,48.1199,58.3143,120.516,99.9412,98.6018,0.000196342,0.0560649,20.9516,75.2009,0.122888,0.0,1.0
32,7.75,47.5235,58.4856,117.435,99.9437,98.1674,0.000205919,0.0653631,20.951,74.9807,0.163342,0.0,0.0
36,8.75,48.7838,60.5383,123.082,99.9433,97.8494,0.000209043,0.102687,20.95,74.7405,0.192851,0.0,0.0
40,9.75,49.3822,61.9883,121.61,99.9551,99.418,0.000311369,0.1639,20.9491,74.6204,0.0490734,0.0,0.0
44,10.75,50.5019,63.1482,122.045,99.9585,98.3701,0.000605694,0.244646,20.9446,74.4002,0.145892,0.0,0.0
48,11.75,51.3422,64.5155,127.244,99.9682,99.4354,0.00105797,0.339146,20.915,74.27,0.0486684,0.0,0.0
52,12.75,51.9639,64.6376,120.817,99.9766,98.7399,0.00161211,0.421097,20.8476,74.0698,0.113372,0.0,0.0
56,13.75,51.7375,66.6144,128.445,99.988,99.3891,0.00217051,0.482827,20.7615,73.8897,0.0547219,0.0,0.0
60,14.75,53.5434,67.5508,125.734,99.988,99.3776,0.00274796,0.520552,20.6516,73.7395,0.0557731,0.0,0.0
64,15.75,52.743,67.4917,123.657,100.006,100.421,0.00323506,0.539083,20.5547,73.5594,-0.0377338,0.0,0.0
68,16.75,54.3206,68.1616,123.774,100.006,99.9892,0.00362554,0.545273,20.4815,73.4392,0.00154712,0.0,0.0
72,17.75,54.4671,68.4598,126.809,100.006,100.47,0.00388352,0.544288,20.4332,73.2891,-0.0421849,0.0,0.0
76,18.75,54.0409,68.8225,122.983,100.021,100.533,0.00401006,0.53982,20.4014,73.1089,-0.0465383,0.0,0.0
80,19.75,55.5147,68.8493,125.894,100.026,100.913,0.00403938,0.532108,20.3806,72.9288,-0.0804672,0.0,0.0
84,20.75,55.795,68.6996,124.924,100.05,100.818,0.00404416,0.521572,20.3749,72.7586,-0.0696585,0.0,0.0
88,21.75,55.7339,69.7063,126.455,100.029,100.737,0.00397921,0.506127,20.3769,72.6285,-0.0642064,0.0,0.0
92,22.75,55.9043,69.1638,127.752,100.008,100.476,0.00388897,0.489646,20.3836,72.5284,-0.0424942,0.0,0.0
96,23.75,55.9779,69.3855,127.649,100.015,100.682,0.00377084,0.474475,20.3952,72.4083,-0.0605719,0.0,0.0
100,24.75,56.4055,69.3176,121.005,100.021,101.271,0.00364832,0.459879,20.4112,72.2581,-0.11313,0.0,0.0
104,25.75,56.4514,68.8695,126.306,100.02,100.749,0.00349148,0.443708,20.4291,72.2381,-0.0661716,0.0,0.0
108,26.75,56.7745,69.5654,129.65,100.001,101.082,0.00331502,0.42875,20.4478,72.078,-0.0979236,0.0,0.0
112,27.75,57.0121,69.6518,131.96,100.004,101.27,0.0031508,0.415018,20.4646,71.9378,-0.11455,0.0,0.0
116,28.75,56.7097,68.9307,126.033,100.008,100.907,0.00299968,0.402091,20.4852,71.8477,-0.0814635,0.0,0.0
120,29.75,57.5393,69.2569,128.342,100.007,101.366,0.00288454,0.390249,20.5067,71.7176,-0.122981,0.0,0.0
124,30.75,57.3404,69.087,128.999,100.012,100.929,0.00281802,0.379377,20.5256,71.5775,-0.0831053,0.0,0.0
128,31.75,57.442,69.0438,129.536,100.004,100.58,0.00278326,0.369628,20.5402,71.5274,-0.0522736,0.0,0.0
132,32.75,57.295,68.8054,126.538,99.999,101.161,0.00274152,0.359663,20.5532,71.4173,-0.105223,0.0,0.0
136,33.75,57.9693,68.7745,129.555,99.9851,100.918,0.00264979,0.34961,20.5679,71.3072,-0.0845721,0.0,0.0
140,34.75,57.6971,68.4094,130.521,99.9779,101.047,0.00251177,0.339921,20.5819,71.2071,-0.0968547,0.0,0.0
144,35.75,57.3313,68.296,128.767,99.9842,101.158,0.00235489,0.330852,20.5947,71.1171,-0.106281,0.0,0.0
148,36.75,58.228,68.6022,128.181,99.969,101.06,0.00221504,0.321721,20.6076,71.017,-0.0988203,0.0,0.0
152,37.75,58.1595,68.7548,127.323,99.9576,101.064,0.00210417,0.313404,20.619,70.9569,-0.100272,0.0,0.0
156,38.75,57.9272,68.49,127.865,99.9538,100.787,0.00200449,0.305616,20.6289,70.8468,-0.0756519,0.0,0.0
160,39.75,58.1974,68.4996,127.536,99.9509,101.081,0.0019144,0.299127,20.6383,70.7867,-0.102417,0.0,0.0
164,40.75,57.9429,68.4041,134.611,99.9348,100.439,0.00183049,0.292812,20.647,70.6466,-0.0458181,0.0,0.0
168,41.75,58.3982,68.2408,127.509,99.9251,100.737,0.00174421,0.287658,20.6557,70.5565,-0.0736649,0.0,0.0
172,42.75,58.3079,68.1892,128.703,99.9289,100.758,0.00168477,0.283535,20.6649,70.4664,-0.0752681,0.0,0.0
176,43.75,58.4929,68.3236,128.952,99.9179,101.099,0.00165078,0.280227,20.6728,70.3663,-0.107073,0.0,0.0
180,44.75,58.0961,67.7692,129.087,99.9112,100.968,0.00167091,0.276587,20.6797,70.2963,-0.0958594,0.0,0.0
184,45.75,58.6058,67.9319,128.165,99.8901,101.716,0.00170918,0.272371,20.6854,70.2162,-0.164955,0.0,0.0
188,46.75,58.3867,67.4022,126.743,99.877,100.672,0.00173751,0.268075,20.6897,70.1762,-0.0722016,0.0,0.0
192,47.75,57.8177,67.7335,131.312,99.8766,100.571,0.00172586,0.263828,20.6946,70.0561,-0.0631458,0.0,0.0
196,48.75,58.7247,67.3591,128.645,99.8588,100.797,0.00170919,0.25923,20.7015,69.9159,-0.0851415,0.0,0.0
200,49.75,58.5239,67.1504,126.636,99.8517,100.674,0.00169824,0.254795,20.7078,69.8258,-0.0747202,0.0,0.0
204,50.75,58.5564,67.2032,130.515,99.847,100.76,0.00169063,0.251657,20.7116,69.7758,-0.0829021,0.0,0.0
208,51.75,58.6158,66.7879,128.977,99.8322,100.734,0.00167934,0.248103,20.7184,69.7558,-0.081928,0.0,0.0
212,52.75,58.0645,66.8058,125.913,99.823,100.576,0.00165425,0.24501,20.7233,69.6156,-0.0684523,0.0,0.0
216,53.75,58.4793,67.0228,129.183,99.8238,100.969,0.00161007,0.241909,20.7273,69.5656,-0.103913,0.0,0.0
220,54.75,57.9361,66.0862,127.383,99.8073,100.967,0.00156078,0.238488,20.7316,69.5155,-0.105209,0.0,0.0
224,55.75,58.0601,66.4967,131.252,99.798,100.632,0.00152287,0.234917,20.7359,69.4054,-0.0758347,0.0,0.0
228,56.75,58.2565,66.7363,128.176,99.7985,100.821,0.00150784,0.232504,20.7384,69.3154,-0.0928879,0.0,0.0
232,57.75,58.3918,66.2675,132.591,99.7955,101.148,0.00149165,0.22959,20.7428,69.2353,-0.12258,0.0,0.0
236,58.75,58.1,66.2478,130.92,99.779,100.783,0.00147701,0.226908,20.7468,69.1652,-0.0911791,0.0,0.0
240,59.75,58.0416,66.4912,130.457,99.7643,100.489,0.00142259,0.224432,20.7505,69.0151,-0.0659529,0.0,0.0
244,60.75,57.9614,66.4249,128.366,99.7795,100.535,0.00135778,0.222085,20.7536,68.985,-0.068722,0.0,0.0
248,61.75,58.3375,66.3283,129.3,99.7617,100.57,0.0013135,0.220221,20.7565,68.935,-0.0735418,0.0,0.0
252,62.75,58.3663,66.2112,129.827,99.7537,100.66,0.00129808,0.218826,20.7596,68.8249,-0.0823723,0.0,0.0
256,63.75,57.7899,65.7007,127.399,99.7478,100.397,0.00130059,0.21794,20.7628,68.7748,-0.0590522,0.0,0.0
260,64.75,58.4362,65.7377,127.773,99.7499,100.332,0.00129965,0.217387,20.7652,68.6547,-0.0529883,0.0,0.0
264,65.75,58.2245,66.0155,128.872,99.7351,100.554,0.00129504,0.216776,20.7668,68.6447,-0.0744739,0.0,0.0
268,66.75,58.1848,66.0838,128.367,99.7339,100.429,0.00128081,0.216309,20.7679,68.4746,-0.0632787,0.0,0.0
272,67.75,58.3192,65.864,129.882,99.7195,100.496,0.00128385,0.215597,20.7686,68.4245,-0.0706629,0.0,0.0
276,68.75,58.1927,65.7425,127.53,99.7259,100.615,0.00133101,0.214999,20.7703,68.3645,-0.0808479,0.0,0.0
280,69.75,58.2208,65.7646,132.733,99.7064,100.529,0.00138419,0.214669,20.7712,68.2944,-0.0748521,0.0,0.0
284,70.75,58.7161,65.8487,135.384,99.7094,100.456,0.00148498,0.214355,20.772,68.2343,-0.0679699,0.0,0.0
288,71.75,58.017,65.5352,131.409,99.6883,100.539,0.00159599,0.213975,20.7725,68.1543,-0.0774246,0.0,0.0
292,72.75,57.9461,65.6222,132.175,99.6891,100.241,0.00169128,0.213301,20.7735,68.0041,-0.0502497,0.0,0.0
296,73.75,58.152,65.521,130.423,99.6976,100.337,0.00175256,0.212061,20.7743,68.0141,-0.0582282,0.0,0.0
300,74.75,57.9639,65.394,127.234,99.6912,100.433,0.00178183,0.210754,20.7748,67.914,-0.0675071,0.0,0.0
304,75.75,58.2937,65.1541,131.514,99.6925,100.211,0.0017806,0.209674,20.7762,67.824,-0.0472314,0.0,0.0
308,76.75,57.9551,65.1718,130.281,99.6946,100.749,0.00176975,0.208672,20.7779,67.7339,-0.0958621,0.0,0.0
312,77.75,58.0992,65.1268,128.755,99.6655,100.432,0.00177255,0.207137,20.7796,67.7339,-0.0698188,0.0,0.0
316,78.75,57.9909,64.994,136.279,99.6693,100.621,0.00178634,0.205303,20.7815,67.6938,-0.0865559,0.0,0.0
320,79.75,57.7835,65.5103,129.276,99.6524,100.381,0.00180494,0.20339,20.7835,67.5837,-0.0663116,0.0,0.0
324,80.75,57.6086,65.3702,131.001,99.6587,100.215,0.00179768,0.201614,20.7849,67.4736,-0.050693,0.0,0.0
328,81.75,57.7031,64.8399,131.672,99.6537,100.386,0.00177157,0.20042,20.7862,67.4436,-0.0666545,0.0,0.0
332,82.75,57.9266,64.5485,131.217,99.6769,100.628,0.00172403,0.200061,20.7885,67.3835,-0.0865258,0.0,0.0
336,83.75,58.2261,64.4609,127.91,99.6625,100.567,0.00166144,0.199967,20.7905,67.3435,-0.0822721,0.0,0.0
340,84.75,57.2422,64.6386,132.801,99.633,100.283,0.00159767,0.200047,20.7919,67.1934,-0.0592167,0.0,0.0
344,85.75,57.7399,64.6587,132.862,99.6271,100.376,0.0015488,0.199854,20.7925,67.1733,-0.0682111,0.0,0.0
348,86.75,57.564,63.3238,128.671,99.6393,100.633,0.00151674,0.199271,20.7924,67.1433,-0.0903752,0.0,0.0
352,87.75,57.8267,64.5108,130.704,99.6165,100.5,0.0015226,0.198072,20.7923,67.0632,-0.0804513,0.0,0.0
356,88.75,57.911,64.8527,129.86,99.6233,100.342,0.00156682,0.196546,20.7922,66.9631,-0.0654771,0.0,0.0
360,89.75,57.5785,64.1325,129.246,99.6119,100.562,0.00163476,0.194727,20.7922,66.8831,-0.0864452,0.0,0.0
364,90.75,57.6128,64.7456,131.202,99.6038,100.442,0.00169307,0.192669,20.7929,66.783,-0.0763274,0.0,0.0
368,91.75,57.8899,64.1731,134.371,99.6034,100.35,0.00173929,0.19102,20.7936,66.7229,-0.0679994,0.0,0.0
372,92.75,57.8603,64.2406,130.02,99.5941,100.345,0.00174044,0.189749,20.7956,66.6729,-0.0683916,0.0,0.0
376,93.75,58.2642,64.8789,132.718,99.5967,100.503,0.0017165,0.188622,20.7977,66.6128,-0.0825153,0.0,0.0
380,94.75,57.572,64.3956,132.317,99.5899,100.536,0.00170257,0.187503,20.7991,66.5928,-0.0861263,0.0,0.0
384,95.75,57.6549,63.9595,129.026,99.587,100.371,0.0016992,0.186811,20.8004,66.5327,-0.0714629,0.0,0.0
388,96.75,57.8601,63.1854,130.541,99.5756,100.466,0.00168958,0.186472,20.8017,66.4026,-0.0811184,0.0,0.0
392,97.75,57.4007,64.4416,128.599,99.5688,100.27,0.00167158,0.186328,20.8023,66.3826,-0.0639178,0.0,0.0
396,98.75,57.9968,63.9997,130.699,99.5836,100.58,0.00163898,0.185885,20.8029,66.2525,-0.0906949,0.0,0.0
400,99.75,57.9104,63.8973,133.788,99.5756,100.299,0.00160434,0.18531,20.8041,66.2024,-0.065966,0.0,0.0
404,100.75,57.9945,64.2626,130.197,99.5646,100.47,0.00156887,0.184584,20.8049,66.1123,-0.0824556,0.0,0.0
408,101.75,57.4443,63.7925,132.514,99.5658,100.451,0.00152264,0.183739,20.8052,66.0423,-0.0806348,0.0,0.0
412,102.75,57.0404,63.8779,132.01,99.5565,99.9424,0.00148737,0.182866,20.8056,65.9922,-0.035233,0.0,0.0
416,103.75,57.9018,64.3824,130.035,99.549,100.228,0.00148257,0.182546,20.8064,65.9522,-0.0618979,0.0,0.0
420,104.75,57.9527,63.8806,131.225,99.5401,100.439,0.00151823,0.182252,20.8071,65.8721,-0.0819089,0.0,0.0
424,105.75,56.8414,64.278,132.867,99.5333,100.327,0.00158526,0.181387,20.8081,65.812,-0.0723701,0.0,0.0
428,106.75,57.967,63.7253,132.142,99.5392,100.187,0.00167309,0.180343,20.8088,65.762,-0.0590751,0.0,0.0
432,107.75,57.6014,63.5245,131.482,99.5186,100.381,0.00174456,0.179725,20.8093,65.732,-0.0785526,0.0,0.0
436,108.75,57.1138,63.8419,134.165,99.5122,100.364,0.0018142,0.179476,20.8096,65.712,-0.0776332,0.0,0.0
440,109.75,58.0914,63.7403,134.881,99.4987,100.663,0.00187263,0.179491,20.8111,65.6119,-0.105977,0.0,0.0
444,110.75,56.8834,64.009,131.837,99.4886,100.294,0.00193577,0.179578,20.8123,65.5518,-0.0734252,0.0,0.0
448,111.75,57.8122,63.7554,132.553,99.4898,100.336,0.0019945,0.179379,20.8132,65.4817,-0.0771415,0.0,0.0
452,112.75,57.5136,63.8912,132.353,99.473,100.824,0.00202172,0.17911,20.8137,65.4117,-0.122893,0.0,0.0
456,113.75,57.0793,63.591,136.054,99.481,100.638,0.00203576,0.17882,20.8141,65.4117,-0.105317,0.0,0.0
460,114.75,57.6304,64.0074,130.586,99.4776,100.342,0.00197532,0.178352,20.8144,65.3016,-0.0788461,0.0,0.0
464,115.75,55.9752,63.2521,132.737,99.4713,100.264,0.00191954,0.177794,20.8146,65.2315,-0.0723017,0.0,0.0
468,116.75,57.4074,63.9828,133.64,99.4645,100.224,0.0018674,0.177185,20.8148,65.1014,-0.0692515,0.0,0.0
472,117.75,57.5215,62.9645,128.033,99.4573,100.753,0.00183314,0.176193,20.8148,65.0513,-0.117897,0.0,0.0
476,118.75,57.8454,63.3816,132.575,99.4582,100.592,0.00182197,0.174938,20.8157,65.0513,-0.103209,0.0,0.0
480,119.75,57.0619,63.8508,131.244,99.4426,100.172,0.00183709,0.173903,20.8163,64.9713,-0.0665495,0.0,0.0
484,120.75,57.7269,63.6763,133.89,99.4299,100.12,0.00186294,0.17317,20.8174,64.9412,-0.0630365,0.0,0.0
488,121.75,57.5462,63.7555,132.976,99.4307,100.089,0.00187991,0.172575,20.8182,64.8612,-0.060079,0.0,0.0
492,122.75,57.344,63.3773,128.977,99.4333,100.212,0.00189476,0.171967,20.8187,64.8411,-0.071029,0.0,0.0
496,123.75,57.3915,63.6045,133.288,99.4333,100.202,0.00192241,0.171651,20.819,64.7611,-0.0701115,0.0,0.0
500,124.75,57.2202,63.5162,130.557,99.4261,100.185,0.00195883,0.171686,20.8192,64.661,-0.0692679,0.0,0.0
504,125.75,57.1876,63.1949,132.691,99.4295,100.356,0.00198776,0.172213,20.8194,64.651,-0.0844609,0.0,0.0
508,126.75,57.2276,63.3232,128.761,99.4278,100.269,0.00200412,0.172941,20.8195,64.5609,-0.0767435,0.0,0.0
512,127.75,57.2356,63.4932,132.559,99.4337,100.131,0.00200652,0.173204,20.8195,64.5008,-0.0636067,0.0,0.0
516,128.75,57.0059,63.0978,130.773,99.4341,100.389,0.00200331,0.172899,20.8188,64.5008,-0.0870333,0.0,0.0
520,129.75,57.036,63.2162,130.996,99.4202,100.038,0.00199896,0.172196,20.8183,64.4408,-0.0564521,0.0,0.0
524,130.75,57.23,62.967,129.858,99.4265,100.417,0.00199965,0.171172,20.818,64.3707,-0.0902688,0.0,0.0
528,131.75,57.1091,63.5337,131.231,99.432,100.59,0.00199397,0.170184,20.8182,64.3206,-0.10544,0.0,0.0
532,132.75,57.3342,63.2038,128.059,99.4286,100.195,0.00197468,0.169396,20.8189,64.2606,-0.0699118,0.0,0.0
536,133.75,57.126,62.697,129.175,99.44,100.188,0.00193856,0.169047,20.82,64.2005,-0.0682417,0.0,0.0
540,134.75,56.5034,63.2917,123.852,99.4392,100.27,0.00190677,0.168787,20.8207,64.1004,-0.0758232,0.0,0.0
544,135.75,57.3892,63.1937,129.077,99.4531,100.307,0.00189069,0.168622,20.8219,64.1004,-0.0778807,0.0,0.0
548,136.75,57.0044,63.092,128.886,99.4586,100.721,0.00190669,0.168538,20.8227,64.0604,-0.114919,0.0,0.0
552,137.75,57.1335,63.374,127.911,99.4734,100.278,0.00193283,0.169251,20.8233,63.9803,-0.0734001,0.0,0.0
556,138.75,57.3589,62.7933,131.194,99.4662,100.458,0.00196267,0.169783,20.8239,63.8902,-0.0903779,0.0,0.0
560,139.75,57.1964,63.438,132.809,99.4763,100.62,0.00199252,0.170088,20.8245,63.8802,-0.104081,0.0,0.0
564,140.75,57.0601,63.4408,129.188,99.4797,100.095,0.00201436,0.169721,20.8249,63.7901,-0.0561364,0.0,0.0
568,141.75,57.29,63.3309,129.686,99.4979,100.146,0.00204109,0.169204,20.8251,63.7401,-0.0591495,0.0,0.0
572,142.75,57.1301,63.0888,130.648,99.5021,100.474,0.00207791,0.168615,20.8253,63.7201,-0.0885484,0.0,0.0
576,143.75,57.1016,63.1608,132.149,99.5245,100.429,0.00211813,0.168294,20.8254,63.66,-0.0823816,0.0,0.0
580,144.75,56.8503,62.9709,131.412,99.5473,100.509,0.00217324,0.167988,20.8255,63.6,-0.087616,0.0,0.0
584,145.75,57.2636,63.0586,131.228,99.5536,100.719,0.00223641,0.167496,20.8255,63.5199,-0.105975,0.0,0.0
588,146.75,56.8607,62.3175,130.863,99.5658,100.559,0.00228011,0.167252,20.8258,63.4398,-0.0904048,0.0,0.0
592,147.75,57.1309,62.9778,131.555,99.5823,100.476,0.00229077,0.16706,20.8265,63.3898,-0.0814159,0.0,0.0
596,148.75,56.937,63.1839,129.467,99.5962,100.817,0.00226939,0.166586,20.827,63.3597,-0.11095,0.0,0.0
600,149.75,57.5024,62.5327,131.228,99.6233,100.453,0.00221229,0.166031,20.8273,63.3397,-0.0755079,0.0,0.0
604,150.75,56.7891,63.2034,126.612,99.6389,101.379,0.00214546,0.165683,20.8275,63.2797,-0.157726,0.0,0.0
608,151.75,57.2362,62.801,128.554,99.657,100.533,0.00205706,0.165382,20.8276,63.2296,-0.0796977,0.0,0.0
612,152.75,56.592,62.9496,130.46,99.6638,100.41,0.00197358,0.165206,20.828,63.2096,-0.0679343,0.0,0.0
616,153.75,57.3443,62.7909,128.784,99.6849,100.533,0.00190534,0.16521,20.8288,63.0995,-0.077193,0.0,0.0
620,154.75,57.2321,62.4653,130.165,99.7153,100.426,0.0018673,0.165284,20.8293,63.0595,-0.0646427,0.0,0.0
624,155.75,56.9054,63.1852,131.424,99.7339,100.768,0.00184411,0.165143,20.8296,62.9994,-0.0939767,0.0,0.0
628,156.75,57.3119,62.6422,135.896,99.7516,100.38,0.00182406,0.164618,20.8298,62.9393,-0.0572066,0.0,0.0
632,157.75,56.8908,62.4877,131.311,99.782,100.563,0.00181536,0.164217,20.83,62.9393,-0.0709846,0.0,0.0
636,158.75,57.0232,63.2684,128.65,99.7879,100.747,0.00183443,0.164239,20.8301,62.8793,-0.0871347,0.0,0.0
640,159.75,57.2384,63.3104,131.169,99.8196,100.465,0.00188092,0.164198,20.8301,62.7892,-0.0587003,0.0,0.0
644,160.75,56.1879,63.0161,131.528,99.8327,100.734,0.00193215,0.163743,20.8302,62.7892,-0.0818481,0.0,0.0
648,161.75,57.1919,63.1241,134.729,99.8555,100.731,0.00197569,0.163338,20.8302,62.7291,-0.0794781,0.0,0.0
652,162.75,57.0995,62.7106,130.508,99.8774,100.973,0.00200446,0.162519,20.8302,62.6291,-0.0993944,0.0,0.0
656,163.75,56.8014,62.9768,133.594,99.9158,100.804,0.00199245,0.16187,20.8302,62.6291,-0.0805658,0.0,0.0
660,164.75,56.864,62.8886,133.62,99.9475,100.812,0.00195589,0.161663,20.8302,62.549,-0.0784677,0.0,0.0
664,165.75,56.7798,62.7134,129.758,99.9779,101.195,0.00190047,0.161683,20.8305,62.5189,-0.110203,0.0,0.0
668,166.75,57.2252,62.6323,130.954,100.005,101.446,0.00187649,0.161939,20.8312,62.4889,-0.130301,0.0,0.0
672,167.75,56.9709,61.8243,132.752,100.029,101.492,0.00187824,0.162071,20.8317,62.4589,-0.132228,0.0,0.0
676,168.75,56.891,62.8522,128.94,100.045,100.952,0.0018832,0.161915,20.8328,62.3488,-0.0822145,0.0,0.0
680,169.75,57.0621,62.8723,128.899,100.074,100.876,0.00188274,0.161557,20.8329,62.3188,-0.0727718,0.0,0.0
684,170.75,57.3162,63.0135,130.165,100.103,100.828,0.00187941,0.161018,20.8328,62.2587,-0.0657325,0.0,0.0
688,171.75,56.4488,63.1386,130.907,100.127,101.027,0.00188507,0.160141,20.8333,62.2387,-0.0815506,0.0,0.0
692,172.75,56.8252,63.0507,131.543,100.153,100.676,0.0019079,0.159213,20.8339,62.1086,-0.0473896,0.0,0.0
696,173.75,56.3923,62.2846,129.748,100.16,100.992,0.00197686,0.158722,20.8345,62.0986,-0.0753311,0.0,0.0
700,174.75,56.5727,62.8771,132.789,100.191,101.352,0.00206465,0.158895,20.8358,61.9884,-0.104952,0.0,0.0
704,175.75,57.0452,62.3099,131.246,100.219,101.604,0.00216917,0.15925,20.8365,62.0185,-0.124985,0.0,0.0
708,176.75,56.4197,62.5008,135.258,100.23,101.306,0.00225617,0.159354,20.8371,61.9985,-0.0972563,0.0,0.0
712,177.75,57.1559,62.0751,129.789,100.244,101.061,0.00231208,0.15905,20.8374,61.9584,-0.073978,0.0,0.0
716,178.75,57.5264,62.7705,130.481,100.243,101.198,0.00234024,0.158283,20.8376,61.8783,-0.0863658,0.0,0.0
720,179.75,56.8467,62.8553,133.708,100.27,101.261,0.00233251,0.157344,20.8378,61.8483,-0.0896493,0.0,0.0
724,180.75,56.7128,62.7338,130.747,100.273,101.021,0.00230494,0.156619,20.8379,61.7783,-0.0676931,0.0,0.0
728,181.75,57.0846,62.8198,132.669,100.295,101.287,0.00228235,0.156379,20.8384,61.7783,-0.0895791,0.0,0.0
732,182.75,57.1485,62.6062,131.711,100.289,101.235,0.00228102,0.156269,20.8391,61.7582,-0.0855706,0.0,0.0
736,183.75,57.2643,61.5652,132.465,100.292,101.494,0.00229964,0.156149,20.8395,61.7082,-0.108553,0.0,0.0
740,184.75,56.7246,62.8177,131.824,100.29,101.271,0.00231382,0.156032,20.8398,61.6081,-0.0886367,0.0,0.0
744,185.75,57.1025,62.7388,135.093,100.312,101.336,0.00231514,0.155911,20.8394,61.498,-0.0925007,0.0,0.0
748,186.75,56.3706,62.7026,135.903,100.297,101.269,0.0022894,0.155636,20.8387,61.538,-0.0878961,0.0,0.0
752,187.75,57.078,63.0283,130.411,100.316,101.592,0.00224409,0.154997,20.8382,61.528,-0.115098,0.0,0.0
756,188.75,57.4187,62.5806,131.354,100.317,101.397,0.00219978,0.154703,20.8381,61.508,-0.0975208,0.0,0.0
760,189.75,56.455,62.2617,132.746,100.313,101.35,0.00216833,0.155167,20.8386,61.458,-0.0936201,0.0,0.0
764,190.75,56.4285,62.9002,135.123,100.338,101.344,0.00215301,0.15575,20.8389,61.4179,-0.0909427,0.0,0.0
768,191.75,57.2974,62.9492,136.61,100.338,101.657,0.00215242,0.15607,20.8391,61.478,-0.119021,0.0,0.0
772,192.75,56.9037,62.9651,132.349,100.325,101.65,0.00216898,0.155676,20.8392,61.3278,-0.119472,0.0,0.0
776,193.75,57.0621,62.5259,133.377,100.343,100.98,0.00223361,0.154624,20.8394,61.3579,-0.0576054,0.0,0.0
780,194.75,56.275,62.1249,132.586,100.345,101.421,0.00228693,0.154053,20.8394,61.2778,-0.0971751,0.0,0.0
784,195.75,57.3998,62.6678,131.258,100.325,101.316,0.00234478,0.153547,20.8394,61.1777,-0.0895358,0.0,0.0
788,196.75,56.8235,61.99,134.449,100.327,101.346,0.00237373,0.153053,20.8399,61.1376,-0.0920252,0.0,0.0
792,197.75,56.3674,62.4397,128.492,100.306,101.09,0.00238563,0.152465,20.8406,61.1176,-0.0709431,0.0,0.0
796,198.75,56.7211,62.0914,135.387,100.3,101.459,0.00239152,0.151783,20.841,61.0876,-0.104657,0.0,0.0
800,199.75,57.1266,62.8776,129.253,100.288,101.316,0.00239342,0.151374,20.8413,61.0275,-0.0928714,0.0,0.0
804,200.75,56.4521,62.1922,127.655,100.297,101.342,0.00238857,0.150586,20.8415,60.9675,-0.0944144,0.0,0.0
808,201.75,56.7033,62.1696,130.217,100.278,101.049,0.00238285,0.149378,20.8416,60.8774,-0.069676,0.0,0.0
812,202.75,56.8165,62.5833,133.154,100.271,100.889,0.00238691,0.148421,20.8417,60.9475,-0.0559638,0.0,0.0
816,203.75,56.9156,62.2721,127.915,100.257,101.091,0.00240444,0.148315,20.8424,60.9975,-0.0754378,0.0,0.0
820,204.75,56.6923,61.9434,129.64,100.26,100.936,0.00244908,0.148875,20.8434,60.8474,-0.0611463,0.0,0.0
824,205.75,56.271,61.9986,133.42,100.261,101.41,0.00250074,0.149846,20.8445,60.8574,-0.103816,0.0,0.0
828,206.75,56.5871,61.8857,130.971,100.246,101.154,0.00255418,0.150599,20.8452,60.7373,-0.0820935,0.0,0.0
832,207.75,55.5244,61.4762,131.928,100.242,100.979,0.0025945,0.150698,20.8456,60.7473,-0.0667278,0.0,0.0
836,208.75,55.9474,61.356,131.052,100.212,101.138,0.00259964,0.15009,20.8459,60.7072,-0.0837973,0.0,0.0
840,209.75,56.1878,61.7401,131.845,100.212,101.208,0.00257418,0.148594,20.8461,60.6572,-0.0900775,0.0,0.0
844,210.75,56.5471,62.1144,131.529,100.194,101.066,0.0025353,0.146971,20.8463,60.6472,-0.0789994,0.0,0.0
848,211.75,56.7301,62.0491,131.627,100.167,101.037,0.00252146,0.14593,20.8463,60.5771,-0.0786911,0.0,0.0
852,212.75,56.7596,62.0223,132.32,100.15,100.808,0.00253622,0.145637,20.8473,60.5771,-0.0596451,0.0,0.0
856,213.75,56.8882,62.3158,127.572,100.121,101.455,0.00255613,0.145939,20.8486,60.5371,-0.120595,0.0,0.0
860,214.75,56.5664,62.0643,130.738,100.117,101.177,0.00257587,0.146139,20.8495,60.497,-0.0959878,0.0,0.0
864,215.75,56.3298,61.79,134.243,100.101,100.743,0.00259853,0.146271,20.85,60.457,-0.0582118,0.0,0.0
868,216.75,56.8024,61.8436,128.265,100.074,101.011,0.00261745,0.146267,20.8507,60.427,-0.0849047,0.0,0.0
872,217.75,56.6586,61.7461,130.827,100.053,100.719,0.00260848,0.146023,20.8512,60.3869,-0.0604736,0.0,0.0
876,218.75,56.2668,61.9945,132.969,100.021,101.159,0.00257381,0.145561,20.8506,60.3469,-0.103056,0.0,0.0
880,219.75,56.4244,61.8432,130.631,99.9982,100.729,0.00252404,0.145123,20.8503,60.3269,-0.0663461,0.0,0.0
884,220.75,56.5572,61.9164,134.169,99.9969,101.16,0.00249263,0.144095,20.8501,60.2768,-0.105333,0.0,0.0
888,221.75,56.3131,61.5124,131.273,99.9766,100.698,0.00247054,0.143096,20.8502,60.2668,-0.0654449,0.0,0.0
892,222.75,56.7621,61.9881,134.625,99.9475,100.938,0.00245534,0.142419,20.8508,60.2969,-0.0898176,0.0,0.0
896,223.75,56.7015,62.0515,131.222,99.9272,100.646,0.00245708,0.141927,20.8512,60.3269,-0.0652967,0.0,0.0
900,224.75,56.5833,62.2449,126.782,99.9049,100.44,0.00247899,0.141543,20.8531,60.2268,-0.048634,0.0,0.0
904,225.75,56.3373,61.6458,127.585,99.8825,101.381,0.0025091,0.141327,20.8543,60.1767,-0.135649,0.0,0.0
908,226.75,56.2307,62.112,131.687,99.8576,101.182,0.00252434,0.141316,20.8549,60.1267,-0.119974,0.0,0.0
912,227.75,56.6038,61.8052,127.879,99.8369,100.983,0.0025219,0.141347,20.8552,60.0766,-0.104002,0.0,0.0
916,228.75,56.0998,61.4902,132.505,99.817,100.466,0.00250352,0.141277,20.8553,60.0666,-0.0590145,0.0,0.0
920,229.75,56.6064,61.5126,131.934,99.8035,100.739,0.00245483,0.141017,20.8555,59.9966,-0.0849623,0.0,0.0
924,230.75,56.2248,61.9259,130.985,99.774,100.494,0.00239415,0.140795,20.8556,59.9465,-0.0654815,0.0,0.0
928,231.75,55.8159,61.5879,132.493,99.7368,100.525,0.00234937,0.140512,20.8554,59.9365,-0.0716593,0.0,0.0
932,232.75,56.4111,61.8504,131.895,99.7123,100.923,0.00233724,0.140765,20.8551,59.8765,-0.109907,0.0,0.0
936,233.75,56.1858,61.7336,135.718,99.6942,101.407,0.00237405,0.141369,20.8544,59.8564,-0.155186,0.0,0.0
940,234.75,55.9799,61.5979,133.989,99.6765,100.755,0.00243295,0.141853,20.8536,59.8164,-0.0980191,0.0,0.0
944,235.75,56.7756,61.6178,131.662,99.6672,100.63,0.00253075,0.141996,20.8531,59.7964,-0.0875793,0.0,0.0
948,236.75,55.6691,61.4077,133.628,99.6418,101.055,0.00265359,0.141707,20.8528,59.7563,-0.128308,0.0,0.0
952,237.75,56.2483,61.4418,132.57,99.6186,100.68,0.00276127,0.140777,20.8526,59.7263,-0.0965019,0.0,0.0
956,238.75,56.1522,60.6494,131.491,99.6038,100.745,0.00284096,0.13996,20.8524,59.6262,-0.103786,0.0,0.0
960,239.75,56.3508,61.82,130.573,99.5747,100.948,0.00288435,0.139307,20.8528,59.6562,-0.124724,0.0,0.0
964,240.75,56.1884,61.4707,132.057,99.5591,101.477,0.00289171,0.138496,20.8534,59.6262,-0.173798,0.0,0.0
968,241.75,56.1636,61.2837,134.422,99.5329,100.96,0.00287416,0.137748,20.8537,59.6062,-0.129707,0.0,0.0
972,242.75,55.7131,61.3292,132.934,99.5055,100.656,0.00284504,0.137245,20.8548,59.6162,-0.104694,0.0,0.0
976,243.75,56.1491,61.7607,129.418,99.497,100.459,0.00282594,0.137012,20.8555,59.5862,-0.0875979,0.0,0.0
980,244.75,55.6128,60.9619,134.313,99.4683,100.37,0.00281792,0.136893,20.8559,59.5161,-0.0821526,0.0,0.0
984,245.75,55.9711,61.7352,135.613,99.4573,100.43,0.00280363,0.136727,20.8562,59.4761,-0.0886526,0.0,0.0
988,246.75,56.6201,61.2104,132.175,99.4557,100.81,0.00276226,0.136636,20.8571,59.446,-0.123235,0.0,0.0
992,247.75,55.8594,61.3184,132.805,99.4244,100.44,0.00270342,0.136771,20.8578,59.356,-0.0925841,0.0,0.0
996,248.75,56.1893,61.0378,134.093,99.4147,100.2,0.0026527,0.136914,20.8582,59.3259,-0.0716878,0.0,0.0
1000,249.75,56.2009,60.8808,134.528,99.402,100.635,0.00260504,0.137008,20.8577,59.3259,-0.112299,0.0,0.0
1004,250.75,56.3733,61.5592,132.489,99.4109,100.232,0.00258279,0.13719,20.8574,59.2959,-0.0749134,0.0,0.0
1008,251.75,56.2033,61.3011,131.412,99.3759,100.279,0.00259974,0.137468,20.8572,59.2759,-0.0823756,0.0,0.0
1012,252.75,56.113,61.67,139.061,99.3763,100.053,0.00265597,0.137518,20.8571,59.2258,-0.0618121,0.0,0.0
1016,253.75,56.0439,61.4388,137.984,99.3683,100.673,0.00272672,0.137404,20.857,59.1558,-0.11884,0.0,0.0
1020,254.75,56.4706,60.8015,134.559,99.383,100.435,0.00279434,0.137114,20.857,59.1458,-0.095917,0.0,0.0
1024,255.75,56.0916,61.082,137.206,99.3619,100.622,0.00285588,0.136639,20.8574,59.1157,-0.11477,0.0,0.0
1028,256.75,55.7977,60.8954,131.697,99.3729,100.347,0.00290665,0.135836,20.8577,59.0757,-0.0888116,0.0,0.0
1032,257.75,52.8799,60.541,130.406,99.359,100.772,0.0028945,0.135085,20.8578,59.0857,-0.128612,0.0,0.0
1036,258.75,56.3683,60.8989,130.758,99.3649,100.498,0.00285583,0.134199,20.8581,59.0156,-0.103238,0.0,0.0
1040,259.75,56.043,60.9747,133.725,99.3721,100.264,0.00279225,0.13359,20.8593,58.9356,-0.0814323,0.0,0.0
1044,260.75,55.5487,60.7668,134.968,99.3881,100.263,0.00273377,0.132945,20.8608,58.9256,-0.0797952,0.0,0.0
1048,261.75,55.9065,60.9065,131.677,99.3961,100.214,0.00267038,0.132286,20.8617,58.9156,-0.0746835,0.0,0.0
1052,262.75,55.9281,61.0713,135.299,99.4088,100.3,0.00261668,0.131725,20.8624,58.8755,-0.0813173,0.0,0.0
1056,263.75,55.7723,60.9616,128.124,99.421,100.684,0.00253415,0.13143,20.8628,58.8555,-0.115,0.0,0.0
1060,264.75,55.7032,61.0168,131.273,99.432,100.313,0.00244623,0.13131,20.8637,58.8955,-0.0803138,0.0,0.0
1064,265.75,55.7345,60.7585,133.121,99.4599,100.434,0.0023818,0.131216,20.8645,58.8855,-0.0887946,0.0,0.0
1068,266.75,55.9714,60.9062,126.214,99.4641,100.836,0.00236879,0.131119,20.865,58.8455,-0.124783,0.0,0.0
1072,267.75,55.6217,59.6184,130.004,99.5038,100.969,0.00239752,0.130996,20.8653,58.8155,-0.133159,0.0,0.0
1076,268.75,55.5898,61.4556,134.829,99.5354,100.506,0.00244948,0.130807,20.8655,58.7654,-0.0883648,0.0,0.0
1080,269.75,55.6646,61.1421,132.386,99.5532,100.654,0.00249961,0.130574,20.8657,58.7754,-0.100162,0.0,0.0
1084,270.75,56.4403,60.6001,133.118,99.5899,100.51,0.00255649,0.1304,20.8657,58.7354,-0.0837984,0.0,0.0
1088,271.75,55.6604,61.4641,131.103,99.619,100.4,0.00262538,0.13049,20.8664,58.6753,-0.071151,0.0,0.0
1092,272.75,56.0018,60.6443,133.046,99.6469,100.605,0.00268637,0.130962,20.8671,58.6653,-0.0871473,0.0,0.0
1096,273.75,56.0106,60.6869,132.469,99.6841,100.659,0.00272865,0.131602,20.8675,58.6453,-0.0886526,0.0,0.0
1100,274.75,56.0041,60.8177,130.525,99.7377,100.697,0.00276316,0.132177,20.8677,58.5752,-0.0871583,0.0,0.0
1104,275.75,55.8918,60.8224,135.252,99.755,100.871,0.00279031,0.132576,20.8673,58.5952,-0.101292,0.0,0.0
1108,276.75,55.1418,61.2014,133.309,99.7947,100.628,0.00278501,0.132798,20.8668,58.6253,-0.0757274,0.0,0.0
1112,277.75,55.9046,61.3903,131.925,99.8259,100.602,0.00277531,0.133035,20.8665,58.6153,-0.0705502,0.0,0.0
1116,278.75,55.7357,60.1457,131.829,99.8664,100.8,0.00271257,0.133096,20.8661,58.5852,-0.0847387,0.0,0.0
1120,279.75,55.939,61.3241,135.259,99.9133,100.582,0.00265109,0.132881,20.8649,58.5052,-0.0607517,0.0,0.0
1124,280.75,55.8386,60.9641,131.876,99.9437,100.664,0.00260849,0.132378,20.8638,58.4952,-0.0654154,0.0,0.0
1128,281.75,55.7557,61.0322,133.447,99.9893,100.704,0.00258801,0.131875,20.8636,58.4851,-0.0649134,0.0,0.0
1132,282.75,55.5486,61.282,133.24,100.027,100.718,0.00258685,0.131053,20.8638,58.4851,-0.0627358,0.0,0.0
1136,283.75,55.9409,60.8491,132.589,100.072,101.198,0.00259114,0.130043,20.8639,58.4751,-0.101877,0.0,0.0
1140,284.75,55.7942,61.1695,129.451,100.103,101.07,0.00259169,0.128891,20.864,58.4551,-0.0875064,0.0,0.0
1144,285.75,56.1636,60.5974,128.541,100.145,101.021,0.00257403,0.127733,20.8647,58.4251,-0.0792787,0.0,0.0
1148,286.75,55.1217,60.9144,131.887,100.185,100.764,0.00253315,0.126719,20.866,58.4451,-0.0524751,0.0,0.0
1152,287.75,55.3304,60.8506,134.255,100.23,101.344,0.00249281,0.12618,20.8676,58.375,-0.100679,0.0,0.0
1156,288.75,55.7819,60.5595,132.484,100.271,100.968,0.00247986,0.126157,20.8688,58.295,-0.0630873,0.0,0.0
1160,289.75,55.6474,60.6085,138.328,100.309,101.039,0.0025158,0.126434,20.8696,58.2749,-0.0660087,0.0,0.0
1164,290.75,55.397,60.7428,131.564,100.348,101.092,0.00257559,0.126343,20.8702,58.2449,-0.0673163,0.0,0.0
1168,291.75,55.7946,60.7641,134.33,100.398,101.173,0.00267402,0.126091,20.8708,58.2349,-0.070071,0.0,0.0
1172,292.75,55.9486,60.6606,132.695,100.417,101.533,0.00276569,0.125678,20.8706,58.2149,-0.100713,0.0,0.0
1176,293.75,55.3908,60.6096,133.972,100.453,101.672,0.0028281,0.125129,20.8703,58.1849,-0.10992,0.0,0.0
1180,294.75,55.1961,60.482,127.988,100.495,101.35,0.00286904,0.124732,20.8701,58.1648,-0.0771536,0.0,0.0
1184,295.75,55.9362,60.3915,133.12,100.537,101.323,0.00289139,0.12452,20.8706,58.1749,-0.0709332,0.0,0.0
1188,296.75,56.0362,60.565,131.389,100.571,101.36,0.00288347,0.12427,20.8711,58.1348,-0.0712139,0.0,0.0
1192,297.75,55.1131,60.7226,133.913,100.609,101.238,0.00284697,0.123928,20.8713,58.1148,-0.0567619,0.0,0.0
1196,298.75,55.3788,60.1724,135.513,100.637,101.545,0.00276455,0.123067,20.8716,58.0848,-0.0818152,0.0,0.0
1200,299.75,54.9067,59.6309,131.177,100.677,101.672,0.0027271,0.122709,20.8717,58.0547,-0.0896537,0.0,0.0
1204,300.75,55.3328,59.9494,134.894,100.702,101.387,0.00269672,0.122378,20.8723,58.0647,-0.061759,0.0,0.0
1208,301.75,55.6024,59.6464,133.35,100.733,101.589,0.00273546,0.122242,20.8729,58.0547,-0.0771328,0.0,0.0
1212,302.75,55.1252,60.1927,133.779,100.773,101.933,0.00281658,0.122533,20.8731,58.0047,-0.104223,0.0,0.0
1216,303.75,54.9205,59.7998,133.278,100.804,101.821,0.00292587,0.123104,20.8733,57.9947,-0.0914713,0.0,0.0
1220,304.75,55.2999,59.3507,135.61,100.854,101.716,0.00302864,0.123458,20.8735,57.9747,-0.0774887,0.0,0.0
1224,305.75,55.041,59.911,133.427,100.867,101.734,0.00312625,0.123459,20.8735,57.9546,-0.0779902,0.0,0.0
1228,306.75,55.2679,59.7561,132.257,100.883,101.653,0.0031935,0.122932,20.873,57.9246,-0.0693078,0.0,0.0
1232,307.75,53.5842,58.9306,133.034,100.923,102.08,0.00321953,0.122262,20.8724,57.9246,-0.103799,0.0,0.0
1236,308.75,54.8474,59.7785,132.64,100.939,101.812,0.00320494,0.121906,20.8721,57.9246,-0.078413,0.0,0.0
1240,309.75,55.4683,58.7607,132.214,100.972,102.155,0.00316825,0.121737,20.8723,57.8946,-0.106129,0.0,0.0
1244,310.75,54.4488,59.73,133.654,100.981,101.523,0.00313167,0.121547,20.8728,57.8846,-0.0487863,0.0,0.0
1248,311.75,55.0438,59.3865,134.155,100.996,101.854,0.0031122,0.121124,20.8731,57.8445,-0.0770851,0.0,0.0
1252,312.75,54.8087,58.9526,133.124,101.014,101.57,0.0031272,0.120911,20.873,57.7845,-0.0500166,0.0,0.0
1256,313.75,54.7827,59.6299,134.323,101.031,101.928,0.00315789,0.120938,20.8729,57.7545,-0.080528,0.0,0.0
1260,314.75,53.6993,58.1263,136.251,101.043,101.448,0.00318028,0.121182,20.8729,57.7745,-0.0364784,0.0,0.0
1264,315.75,52.3228,57.5715,133.716,101.047,101.79,0.00316703,0.121442,20.8729,57.7344,-0.0667365,0.0,0.0
1268,316.75,53.0405,57.6982,133.872,101.044,102.058,0.00314123,0.12161,20.8729,57.6744,-0.0909811,0.0,0.0
1272,317.75,53.3873,57.6227,127.443,101.057,102.09,0.00309244,0.121817,20.8729,57.6844,-0.0925879,0.0,0.0
1276,318.75,51.2921,57.7772,132.252,101.054,101.453,0.00304873,0.121383,20.8728,57.6744,-0.0359006,0.0,0.0
1280,319.75,53.0821,57.9642,133.577,101.047,101.548,0.003021,0.120542,20.8728,57.6544,-0.0450346,0.0,0.0
1284,320.75,52.7733,57.6108,134.02,101.05,101.881,0.00301014,0.119564,20.8728,57.6444,-0.0745916,0.0,0.0
1288,321.75,53.1314,57.9812,131.512,101.036,101.97,0.00300821,0.118969,20.8728,57.6043,-0.0838417,0.0,0.0
1292,322.75,52.9834,57.3813,135.264,101.02,101.706,0.00299875,0.118523,20.8736,57.5943,-0.0616536,0.0,0.0
1296,323.75,52.777,57.4047,132.696,101,101.725,0.00298773,0.118327,20.8742,57.5943,-0.0652065,0.0,0.0
1300,324.75,52.8284,57.5974,131.954,101.008,101.717,0.00298176,0.118848,20.8748,57.5543,-0.0637024,0.0,0.0
1304,325.75,53.5338,57.5356,135.253,100.979,102.415,0.00297885,0.119234,20.8758,57.5843,-0.128647,0.0,0.0
1308,326.75,53.0791,57.7205,132.991,100.959,102.091,0.0029679,0.119348,20.8764,57.5743,-0.101584,0.0,0.0
1312,327.75,53.0118,57.7081,131.581,100.941,101.987,0.00294972,0.119047,20.8769,57.4942,-0.0938851,0.0,0.0
1316,328.75,52.4638,56.1713,132.535,100.929,101.823,0.00292971,0.118329,20.8771,57.4842,-0.0803095,0.0,0.0
1320,329.75,53.1041,58.0599,134.524,100.904,101.345,0.00290857,0.117484,20.8773,57.5042,-0.0397347,0.0,0.0
1324,330.75,52.6845,57.5651,134.09,100.879,101.64,0.00287213,0.116938,20.8775,57.4942,-0.0684993,0.0,0.0
1328,331.75,52.7966,57.6223,132.422,100.846,101.236,0.0028392,0.116664,20.8782,57.4542,-0.0351425,0.0,0.0
1332,332.75,53.1908,58.2293,135.732,100.825,101.557,0.00282481,0.117053,20.8788,57.4342,-0.0659354,0.0,0.0
1336,333.75,53.1201,57.1407,134.975,100.794,101.486,0.00284479,0.118056,20.8792,57.4141,-0.0623018,0.0,0.0
1340,334.75,52.7742,57.5849,130.198,100.768,101.768,0.00289986,0.119305,20.8795,57.3741,-0.0899519,0.0,0.0
1344,335.75,52.5143,57.6583,134.568,100.748,101.918,0.00296804,0.12062,20.8789,57.3641,-0.105125,0.0,0.0
1348,336.75,52.693,57.3134,132.271,100.71,101.799,0.00305799,0.121503,20.8778,57.4542,-0.0979329,0.0,0.0
1352,337.75,52.4279,57.222,131.783,100.678,101.373,0.00315319,0.121354,20.8764,57.274,-0.0626238,0.0,0.0
1356,338.75,52.7723,56.421,134.475,100.645,101.486,0.00324055,0.120711,20.8752,57.224,-0.0758555,0.0,0.0
1360,339.75,52.7291,57.2371,134.436,100.613,101.387,0.00330537,0.119789,20.8745,57.294,-0.0698231,0.0,0.0
1364,340.75,52.8142,57.5688,134.393,100.61,101.402,0.00334022,0.118454,20.874,57.264,-0.0713709,0.0,0.0
1368,341.75,52.8962,56.5077,136.188,100.558,101.269,0.00331323,0.11726,20.8748,57.244,-0.0641529,0.0,0.0
1372,342.75,52.7253,56.7189,131.1,100.536,101.097,0.00325091,0.116515,20.8758,57.1939,-0.0506166,0.0,0.0
1376,343.75,53.0115,57.5083,134.894,100.508,101.949,0.00312093,0.115944,20.8775,57.1739,-0.129695,0.0,0.0
1380,344.75,52.0346,57.0194,128.267,100.473,101.131,0.00298443,0.115833,20.8787,57.1539,-0.0594932,0.0,0.0
1384,345.75,52.4415,57.4974,134.597,100.439,101.079,0.00285203,0.115997,20.8794,57.1239,-0.0578474,0.0,0.0
1388,346.75,52.946,56.5914,130.251,100.424,101.405,0.00278471,0.116239,20.8799,57.1639,-0.0885309,0.0,0.0
1392,347.75,52.7961,57.4826,129.967,100.4,101.417,0.00276154,0.115889,20.8802,57.1439,-0.0918651,0.0,0.0
1396,348.75,52.9447,57.4506,135.628,100.369,101.191,0.00278473,0.114905,20.8798,57.1139,-0.0742834,0.0,0.0
1400,349.75,52.2764,57.5665,134.323,100.353,101.359,0.00282478,0.113518,20.8795,57.0938,-0.0908446,0.0,0.0
1404,350.75,53.0585,57.2049,131.976,100.331,101.107,0.00286687,0.111951,20.8793,57.0738,-0.0702138,0.0,0.0
1408,351.75,52.4317,56.8697,131.336,100.324,100.993,0.00290125,0.110825,20.8797,57.0238,-0.0606096,0.0,0.0
1412,352.75,52.8351,56.9423,134.528,100.3,100.906,0.00292912,0.11041,20.8807,57.0238,-0.054891,0.0,0.0
1416,353.75,53.2174,57.2568,133.575,100.3,100.905,0.00295014,0.111029,20.8817,56.9937,-0.0547703,0.0,0.0
1420,354.75,52.7473,57.1844,134.758,100.289,101.013,0.00296907,0.111704,20.8831,57.0238,-0.0654525,0.0,0.0
1424,355.75,52.6288,57.0396,135.447,100.273,101.016,0.00297377,0.112018,20.8836,56.9837,-0.0673168,0.0,0.0
1428,356.75,52.8955,57.1651,133.918,100.27,100.846,0.00296457,0.112285,20.8841,56.9637,-0.0522261,0.0,0.0
1432,357.75,52.4045,56.4478,133.931,100.251,101.012,0.0029337,0.112432,20.8845,56.9637,-0.0688593,0.0,0.0
1436,358.75,52.3719,57.3896,130.997,100.252,101.066,0.00289313,0.112389,20.8847,56.9737,-0.0736244,0.0,0.0
1440,359.75,52.7833,56.5418,133.208,100.245,101.009,0.00286652,0.111938,20.8842,56.9837,-0.0691071,0.0,0.0
1444,360.75,52.2762,56.9099,137.028,100.239,101.023,0.00287026,0.111221,20.8837,56.9437,-0.0709677,0.0,0.0
1448,361.75,52.9787,57.285,131.328,100.228,101.487,0.00290486,0.110266,20.8834,56.9337,-0.113689,0.0,0.0
1452,362.75,52.7194,57.0755,132.83,100.22,101.115,0.00294495,0.109428,20.884,56.9337,-0.0809634,0.0,0.0
1456,363.75,52.9343,56.9334,131.248,100.219,101.201,0.0029828,0.108716,20.8844,56.9237,-0.0888061,0.0,0.0
1460,364.75,52.9004,57.346,132.421,100.212,101.09,0.00299982,0.108156,20.8857,56.9137,-0.0794605,0.0,0.0
1464,365.75,52.3749,56.9269,130.836,100.197,100.978,0.00299978,0.107802,20.8866,56.8736,-0.0706706,0.0,0.0
1468,366.75,53.0624,57.2695,134.39,100.219,100.865,0.00297942,0.10764,20.888,56.9637,-0.0585276,0.0,0.0
1472,367.75,52.5862,57.1186,133.392,100.199,100.831,0.00296073,0.107649,20.8889,56.9337,-0.0572235,0.0,0.0
1476,368.75,52.4952,57.0072,134.66,100.185,101.168,0.00295576,0.107655,20.8895,56.9437,-0.0889004,0.0,0.0
1480,369.75,52.4424,56.777,130.805,100.181,101.166,0.00297455,0.107524,20.8899,56.9537,-0.0891597,0.0,0.0
1484,370.75,52.4239,56.7082,131.047,100.201,100.871,0.00299901,0.107348,20.8895,56.9337,-0.0607189,0.0,0.0
1488,371.75,52.592,57.1021,131.025,100.184,100.982,0.00303766,0.107191,20.8892,56.9237,-0.0723121,0.0,0.0
1492,372.75,52.4264,57.71,133.56,100.178,100.927,0.00305623,0.107112,20.889,56.9037,-0.0678025,0.0,0.0
1496,373.75,51.5604,57.1002,132.959,100.188,100.789,0.00303815,0.106925,20.8889,56.9137,-0.0545289,0.0,0.0
1500,374.75,52.5995,57.0473,130.933,100.179,100.868,0.00300371,0.106506,20.8888,56.8836,-0.0624636,0.0,0.0
1504,375.75,52.2666,56.939,134.132,100.195,101.775,0.00294588,0.106019,20.8895,56.8536,-0.142462,0.0,0.0
1508,376.75,52.3139,57.2789,132.51,100.185,100.514,0.00291471,0.105681,20.89,56.8036,-0.0298489,0.0,0.0
1512,377.75,52.821,56.6962,132.768,100.179,100.837,0.00292361,0.105673,20.8903,56.7936,-0.0596462,0.0,0.0
1516,378.75,51.7709,56.5914,134.082,100.185,100.828,0.00294369,0.105954,20.8905,56.8236,-0.0582413,0.0,0.0
1520,379.75,52.4349,56.8879,133.59,100.186,100.723,0.00295713,0.106115,20.8907,56.7735,-0.0487492,0.0,0.0
1524,380.75,52.5874,54.7066,137.473,100.186,100.737,0.00294467,0.106249,20.8908,56.7235,-0.0499516,0.0,0.0
1528,381.75,52.2418,56.756,132.34,100.187,100.93,0.00291903,0.106548,20.8908,56.7235,-0.0672867,0.0,0.0
1532,382.75,52.2591,57.1769,134.174,100.182,100.726,0.00288308,0.106765,20.8909,56.7535,-0.0493845,0.0,0.0
1536,383.75,52.4805,56.3405,133.191,100.158,100.955,0.00285545,0.106734,20.8901,56.7735,-0.0722125,0.0,0.0
1540,384.75,51.6215,57.0917,133.975,100.174,101.122,0.00283732,0.10651,20.8896,56.7735,-0.0858079,0.0,0.0
1544,385.75,52.2602,56.9947,131.5,100.181,101.154,0.00283672,0.106359,20.8893,56.7435,-0.0880414,0.0,0.0
1548,386.75,51.4673,56.607,133.542,100.191,100.905,0.00284083,0.106383,20.8897,56.7135,-0.0647029,0.0,0.0
1552,387.75,52.5299,57.1676,134.659,100.19,101.291,0.00284353,0.106608,20.8901,56.7135,-0.0995031,0.0,0.0
1556,388.75,52.0772,55.743,135.842,100.192,100.668,0.0028478,0.106891,20.8904,56.6834,-0.0431896,0.0,0.0
1560,389.75,50.6455,57.0278,129.491,100.186,101.213,0.00284389,0.106942,20.8906,56.6534,-0.0929504,0.0,0.0
1564,390.75,52.4042,57.3453,133.315,100.202,100.93,0.00282834,0.106826,20.8907,56.6634,-0.0659409,0.0,0.0
1568,391.75,52.1969,56.5473,133.651,100.197,100.843,0.00280506,0.106753,20.8908,56.6534,-0.0585375,0.0,0.0
1572,392.75,52.3215,56.9614,132.902,100.206,101.318,0.00279889,0.107099,20.8909,56.6034,-0.100558,0.0,0.0
1576,393.75,52.3663,56.5876,132.087,100.209,100.729,0.00280924,0.107633,20.8909,56.6034,-0.0471386,0.0,0.0
1580,394.75,52.0523,57.2874,131.665,100.199,101,0.00282137,0.10848,20.8903,56.5834,-0.0725409,0.0,0.0
1584,395.75,52.4998,56.7902,134.98,100.211,101.197,0.00283076,0.108982,20.8894,56.5733,-0.0891635,0.0,0.0
1588,396.75,52.2494,55.8393,133.914,100.212,101.274,0.00283562,0.109153,20.8889,56.5934,-0.0960212,0.0,0.0
1592,397.75,51.4354,56.5634,133.221,100.208,100.884,0.00286494,0.109246,20.8878,56.6034,-0.0613037,0.0,0.0
1596,398.75,51.8378,56.7649,132.936,100.219,100.91,0.0028913,0.109277,20.887,56.6334,-0.0625899,0.0,0.0
1600,399.75,50.6785,56.3064,130.589,100.242,101.084,0.0028945,0.109261,20.8864,56.6234,-0.0762376,0.0,0.0
1604,400.75,52.1943,56.7296,135.45,100.219,100.654,0.00286205,0.109023,20.886,56.6134,-0.0393704,0.0,0.0
1608,401.75,52.3923,56.6978,133.292,100.227,101.043,0.00280063,0.108637,20.8858,56.5733,-0.0739386,0.0,0.0
1612,402.75,51.8751,56.203,137.881,100.22,100.999,0.00273429,0.108276,20.8858,56.6134,-0.0705809,0.0,0.0
1616,403.75,51.9268,56.2039,134.678,100.23,100.875,0.00268123,0.108188,20.8865,56.5934,-0.0584386,0.0,0.0
1620,404.75,51.9999,56.6791,132.779,100.24,100.956,0.00265761,0.108276,20.8869,56.5533,-0.06485,0.0,0.0
1624,405.75,51.8308,56.7828,133.459,100.239,101.08,0.00269624,0.108452,20.8871,56.5333,-0.0761336,0.0,0.0
1628,406.75,51.9049,56.5949,135.819,100.249,100.829,0.0027893,0.108775,20.8873,56.5133,-0.0525679,0.0,0.0
1632,407.75,51.4729,55.9143,130.757,100.244,101.032,0.00291815,0.109063,20.8868,56.4933,-0.0713731,0.0,0.0
1636,408.75,52.0823,56.6934,135.211,100.246,100.937,0.0030526,0.109176,20.8863,56.5233,-0.0626129,0.0,0.0
1640,409.75,52.2491,55.676,137.408,100.272,100.609,0.00317799,0.108926,20.8859,56.5133,-0.0306273,0.0,0.0
1644,410.75,52.1102,56.9297,135.232,100.27,100.825,0.00328826,0.108784,20.8857,56.5233,-0.0502781,0.0,0.0
1648,411.75,52.3474,56.7431,132.917,100.271,101.078,0.00336837,0.108696,20.8856,56.4732,-0.0730536,0.0,0.0
1652,412.75,51.9631,56.1985,137.145,100.28,101.072,0.00341502,0.108404,20.8855,56.4833,-0.0716692,0.0,0.0
1656,413.75,52.0221,57.0011,132.159,100.286,100.825,0.00342705,0.107896,20.8854,56.5033,-0.0488621,0.0,0.0
1660,414.75,52.1209,56.3793,133.362,100.287,100.78,0.00337944,0.107323,20.8854,56.4232,-0.0446429,0.0,0.0
1664,415.75,50.6982,56.4396,131.251,100.303,101.381,0.00328726,0.106816,20.8853,56.4833,-0.0973842,0.0,0.0
1668,416.75,52.0793,56.4547,132.949,100.323,100.888,0.00312713,0.106273,20.8853,56.4532,-0.0512062,0.0,0.0
1672,417.75,51.6762,56.1372,133.163,100.315,100.831,0.00299527,0.105827,20.8853,56.4332,-0.0467135,0.0,0.0
1676,418.75,51.4213,56.6406,133.981,100.324,101.067,0.0028862,0.105564,20.8866,56.4232,-0.0672271,0.0,0.0
1680,419.75,52.0001,56.3121,132.972,100.344,101.23,0.00285298,0.105711,20.8877,56.4432,-0.0801342,0.0,0.0
1684,420.75,51.7726,56.282,132.559,100.344,100.98,0.00286731,0.106113,20.8885,56.3732,-0.0575316,0.0,0.0
1688,421.75,51.6269,56.4313,130.228,100.371,101.066,0.00290154,0.10654,20.889,56.3832,-0.0628556,0.0,0.0
1692,422.75,51.7789,55.4215,130.109,100.368,100.947,0.0029353,0.106891,20.8893,56.3331,-0.0524024,0.0,0.0
1696,423.75,51.6209,56.1725,132.744,100.387,100.865,0.00294996,0.106969,20.8895,56.2831,-0.043272,0.0,0.0
1700,424.75,51.6756,55.9814,130.757,100.395,101.052,0.00293729,0.106292,20.8897,56.3031,-0.0593904,0.0,0.0
1704,425.75,51.6936,56.2183,132.834,100.417,100.87,0.00290599,0.105403,20.8898,56.3331,-0.0409665,0.0,0.0
1708,426.75,51.5193,55.9262,132.15,100.428,100.891,0.00285813,0.104719,20.8898,56.3331,-0.0419122,0.0,0.0
1712,427.75,51.9461,56.3471,135.32,100.42,100.977,0.00282005,0.104513,20.8904,56.2831,-0.0504648,0.0,0.0
1716,428.75,51.4736,55.6306,132.395,100.471,101.166,0.00279826,0.104734,20.8913,56.2731,-0.0627834,0.0,0.0
1720,429.75,51.8557,56.0618,132.256,100.482,100.973,0.00281104,0.105051,20.8922,56.2931,-0.0443854,0.0,0.0
1724,430.75,51.7902,55.5586,133.326,100.49,101.28,0.00283689,0.105355,20.8927,56.2931,-0.071302,0.0,0.0
1728,431.75,51.6193,55.844,131.492,100.496,101.684,0.00285552,0.105392,20.893,56.2731,-0.107006,0.0,0.0
1732,432.75,52.3993,56.0432,134.569,100.533,100.999,0.0028314,0.105162,20.8933,56.3131,-0.0421107,0.0,0.0
1734,433.25,51.7097,56.2758,131.884,100.525,101.231,0.0027873,0.105041,20.8934,56.2831,-0.0636728,0.0,0.0