File: 01_Data/Cellulose_Insulation/Cone/Cellulose_Insulation_Cone_HF25Scan_230613_R3.csv
Names,Time,Stack TC,Smoke TC,Exh Press,Smoke Comp,Smoke Meas,CO Meter,CO2 Meter,O2 Meter,Sample Mass,Ext Coeff,Start Test,Flame Verif
Chan Gain,,500,500,1,1,1,1,1,1,1,1,1.0,1.0
Offset,,0,0,0.142142,0,0,0,0,0,0,0,0.0,0.0
Gain,,1,1,25.011,13.3129,15.7223,1,1,1,1.00097,1.04429,1.0,1.0
Units,sec,C,C,Pa,%,%,%,%,%,g,/m,,
Baseline,,27.2667,28.7692,157.095,100.159,100.28,4.95676e-05,0.0450485,20.9656,-445.076,-0.0110743,,
3,0.5,24.1468,23.5378,154.662,99.726,99.9678,8.14393e-05,0.0503783,20.9586,55.7738,-0.0221809,0.0,0.0
6,1.25,23.803,24.2947,155.167,99.7931,99.9539,8.23355e-05,0.0501023,20.958,55.7237,-0.0147507,0.0,0.0
9,2,24.2582,24.1501,164.465,99.8544,100.022,8.97379e-05,0.0498933,20.9575,55.7037,-0.0153184,0.0,0.0
12,2.75,23.1645,24.6872,156.034,99.9113,99.6372,9.71078e-05,0.049728,20.9571,55.6937,0.0251645,0.0,0.0
15,3.5,24.2447,24.4533,155.371,99.9686,99.3071,0.000105855,0.049661,20.9568,55.6236,0.0608146,0.0,0.0
18,4.25,24.2473,24.6369,156.375,100.019,99.0816,0.000102233,0.0497038,20.9569,55.6236,0.0862921,0.0,0.0
21,5,23.6711,25.0029,155.408,100.089,98.1916,9.00688e-05,0.0499217,20.9573,55.6336,0.175312,0.0,0.0
24,5.75,24.8489,25.1821,155.56,100.155,98.6742,7.22045e-05,0.050197,20.9576,55.5836,0.136451,0.0,0.0
27,6.5,24.7483,25.3812,158.107,100.209,98.4214,4.6709e-05,0.0504856,20.9574,55.5636,0.164858,0.0,0.0
30,7.25,24.5762,25.3734,155.648,100.249,98.5423,2.81228e-05,0.0507615,20.9571,55.5235,0.157287,0.0,0.0
33,8,24.6067,25.8768,160.634,100.332,97.5788,2.45675e-05,0.0510664,20.9568,55.5035,0.25486,0.0,0.0
36,8.75,24.4145,25.5814,157.769,100.362,96.7814,2.62363e-05,0.0513178,20.9566,55.3133,0.332811,0.0,0.0
39,9.5,24.934,26.3847,142.473,100.431,100.65,4.49482e-05,0.0515135,20.9565,55.2833,-0.0199678,0.0,1.0
42,10.25,24.705,27.8814,143.056,100.486,101.267,6.80217e-05,0.0516562,20.9564,55.2032,-0.0709525,0.0,1.0
45,11,25.8631,29.6884,149.362,100.53,100.99,8.82179e-05,0.0517602,20.9563,55.1031,-0.0417956,0.0,1.0
48,11.75,26.4015,30.9868,143.855,100.578,101.25,0.000101691,0.051836,20.9563,54.973,-0.0610303,0.0,1.0
51,12.5,26.9058,32.0215,146.942,100.63,101.253,0.000113479,0.0518497,20.9562,54.8429,-0.0565484,0.0,1.0
54,13.25,26.4268,32.2993,149.553,100.649,101.016,0.000123139,0.0518452,20.9562,54.8329,-0.0333115,0.0,1.0
57,14,26.1817,32.1756,144.707,100.683,101.251,0.000139097,0.0518357,20.9562,54.7628,-0.0515751,0.0,0.0
60,14.75,26.9007,32.996,149.245,100.736,101.007,0.000149415,0.0517664,20.9562,54.6927,-0.0246119,0.0,0.0
63,15.5,26.721,33.8389,145.247,100.76,101.254,0.000154685,0.0525369,20.9561,54.6327,-0.0447712,0.0,0.0
66,16.25,27.3856,34.2867,147.455,100.776,101.209,0.000152277,0.0545022,20.9561,54.5526,-0.0392126,0.0,0.0
69,17,27.4016,34.5858,146.475,100.792,101.318,0.000151146,0.0695876,20.9561,54.4925,-0.0476692,0.0,0.0
72,17.75,28.3925,34.9095,145.433,100.825,101.608,0.000155948,0.0869243,20.9555,54.4125,-0.0709228,0.0,0.0
75,18.5,27.9018,35.1926,146.154,100.84,101.448,0.000205834,0.110403,20.955,54.3624,-0.0550548,0.0,0.0
78,19.25,28.37,36.1096,148.311,100.853,101.143,0.000242202,0.13425,20.9547,54.3024,-0.0263213,0.0,0.0
81,20,28.8406,35.9863,146.247,100.853,101.315,0.000413487,0.163144,20.9457,54.2523,-0.0417918,0.0,0.0
84,20.75,29.2186,36.3835,149.041,100.868,101.332,0.00059612,0.189706,20.9353,54.1422,-0.0419876,0.0,0.0
87,21.5,29.3429,36.5055,148.224,100.861,101.343,0.000753887,0.21034,20.9036,54.1322,-0.0436925,0.0,0.0
90,22.25,29.2659,36.5765,148.694,100.861,101.843,0.00093706,0.225922,20.8665,54.0621,-0.0887665,0.0,0.0
93,23,29.2354,36.7627,147.747,100.84,101.626,0.00107589,0.236446,20.8336,53.9821,-0.0711143,0.0,0.0
96,23.75,29.5695,36.3453,147.221,100.84,101.312,0.00118616,0.243323,20.8,53.912,-0.0427863,0.0,0.0
99,24.5,29.9083,37.015,150.19,100.831,101.753,0.00125757,0.246978,20.7755,53.8319,-0.0833866,0.0,0.0
102,25.25,29.8905,36.6534,151.549,100.805,101.271,0.00130102,0.247086,20.7576,53.7719,-0.0422723,0.0,0.0
105,26,29.9857,37.1482,153.944,100.777,101.183,0.00131798,0.246405,20.7446,53.7819,-0.0367569,0.0,0.0
108,26.75,30.1326,37.0919,152.916,100.76,101.812,0.0013106,0.244607,20.7365,53.6718,-0.0951227,0.0,0.0
111,27.5,30.2194,37.3927,149.617,100.737,101.4,0.00129642,0.241336,20.7321,53.6617,-0.0600267,0.0,0.0
114,28.25,30.7468,37.3275,151.792,100.708,101.153,0.00128498,0.237631,20.7305,53.6617,-0.0404239,0.0,0.0
117,29,30.3101,37.0498,153.389,100.668,100.951,0.00128117,0.234366,20.7312,53.6117,-0.0257726,0.0,0.0
120,29.75,30.5565,36.5585,150.709,100.628,101.161,0.00129295,0.230042,20.7317,53.5616,-0.0484393,0.0,0.0
123,30.5,30.4483,37.1131,150.317,100.602,100.86,0.00132645,0.225628,20.7347,53.5116,-0.0234431,0.0,0.0
126,31.25,31.1169,36.7787,151.057,100.555,100.851,0.00139216,0.221871,20.7375,53.4315,-0.0269143,0.0,0.0
129,32,30.8175,37.2535,148.724,100.513,100.724,0.00145598,0.218078,20.7408,53.4015,-0.0192143,0.0,0.0
132,32.75,30.854,37.2267,147.18,100.464,101.127,0.00152972,0.215032,20.7458,53.3815,-0.0602773,0.0,0.0
135,33.5,31.3641,37.5291,147.099,100.431,100.718,0.00159986,0.21233,20.7512,53.3014,-0.0260864,0.0,0.0
138,34.25,31.2923,37.0693,151.808,100.369,101.011,0.00165041,0.209981,20.7559,53.2714,-0.0584193,0.0,0.0
141,35,30.8665,37.2227,154.605,100.33,100.49,0.00168404,0.207924,20.76,53.2514,-0.0146468,0.0,0.0
144,35.75,30.968,37.0169,150.652,100.297,100.74,0.00169058,0.206277,20.7638,53.1713,-0.040368,0.0,0.0
147,36.5,30.9533,36.8894,152.197,100.251,100.684,0.00169534,0.203939,20.767,53.1613,-0.0394615,0.0,0.0
150,37.25,31.5107,36.7436,150.504,100.207,100.683,0.00172039,0.201799,20.7693,53.1112,-0.0434155,0.0,0.0
153,38,31.7962,36.8954,152.502,100.158,100.813,0.00175631,0.199495,20.7713,53.0912,-0.0596964,0.0,0.0
156,38.75,30.9293,36.6568,156.467,100.1,100.333,0.00179267,0.196971,20.7731,53.0111,-0.0213096,0.0,0.0
159,39.5,31.518,37.2993,148.592,100.075,100.695,0.00182372,0.194603,20.7751,52.9811,-0.0565111,0.0,0.0
162,40.25,31.364,36.7629,151.853,100.038,100.492,0.00185895,0.192652,20.7778,52.9411,-0.0414879,0.0,0.0
165,41,31.2278,36.9702,148.58,100.006,100.322,0.00189978,0.190499,20.7804,52.901,-0.0289752,0.0,0.0
168,41.75,31.3665,37.1187,154.151,99.9645,100.372,0.001936,0.188929,20.7832,52.841,-0.0372892,0.0,0.0
171,42.5,30.9574,36.6441,151.604,99.9527,100.305,0.00198966,0.186747,20.7856,52.7909,-0.0321931,0.0,0.0
174,43.25,31.5329,36.7537,157.897,99.9925,100.113,0.00207538,0.185156,20.788,52.7509,-0.0110441,0.0,0.0
177,44,31.4779,37.0071,152.558,100.051,100.581,0.00217917,0.182982,20.7899,52.7108,-0.0483108,0.0,0.0
180,44.75,31.7234,36.7192,151.113,100.117,100.492,0.00232543,0.181056,20.7918,52.6808,-0.034236,0.0,0.0
183,45.5,32.147,36.6595,156.529,100.173,100.648,0.0025098,0.179069,20.794,52.6308,-0.0433924,0.0,0.0
186,46.25,31.9186,36.109,153.201,100.227,100.57,0.00266424,0.177328,20.7969,52.6107,-0.0313012,0.0,0.0
189,47,31.6004,36.7683,151.143,100.281,100.529,0.00281109,0.175837,20.799,52.5807,-0.0226784,0.0,0.0
192,47.75,31.3277,36.5301,149.672,100.298,100.737,0.00292449,0.174584,20.8018,52.5407,-0.0399572,0.0,0.0
195,48.5,31.8895,36.3884,149.214,100.331,100.718,0.00300519,0.173407,20.8045,52.5206,-0.0353251,0.0,0.0
198,49.25,32.0271,36.0201,155.176,100.365,100.777,0.00305602,0.172395,20.8064,52.4906,-0.0374942,0.0,0.0
201,50,32.1402,36.429,154.174,100.37,100.705,0.00311119,0.171592,20.8083,52.4706,-0.0305051,0.0,0.0
204,50.75,31.6135,36.3002,152.232,100.374,100.476,0.00315141,0.170655,20.8098,52.4105,-0.00932939,0.0,0.0
207,51.5,31.7026,36.5739,147.938,100.369,100.552,0.00325324,0.169973,20.8109,52.3705,-0.016683,0.0,0.0
210,52.25,32.0429,36.4751,152.372,100.369,100.553,0.00337328,0.168972,20.812,52.3104,-0.0167339,0.0,0.0
213,53,31.694,35.7997,152.438,100.357,100.861,0.00348032,0.167935,20.8132,52.2804,-0.0458653,0.0,0.0
216,53.75,31.6776,35.9866,153,100.336,100.736,0.00358742,0.167048,20.814,52.2504,-0.036463,0.0,0.0
219,54.5,31.6843,35.3505,147.669,100.324,101.076,0.00364512,0.165681,20.8149,52.2103,-0.068452,0.0,0.0
222,55.25,31.2824,35.5848,157.315,100.309,100.458,0.00367005,0.164103,20.8159,52.1703,-0.0136083,0.0,0.0
225,56,32.1488,35.6915,149.223,100.272,100.495,0.00365562,0.162391,20.8167,52.1603,-0.0203464,0.0,0.0
228,56.75,31.8416,35.7525,151.581,100.218,100.725,0.00360843,0.160607,20.8177,52.1203,-0.0462972,0.0,0.0
231,57.5,31.8473,35.6602,150.412,100.146,100.651,0.00356101,0.158483,20.8192,52.0502,-0.0460623,0.0,0.0
234,58.25,31.8068,35.5449,154.341,100.115,100.486,0.00351738,0.156584,20.8213,52.0302,-0.0338595,0.0,0.0
237,59,32.0166,35.6137,153.755,100.057,100.088,0.00350973,0.154354,20.8231,52.0302,-0.00283802,0.0,0.0
240,59.75,31.7178,35.4451,153.496,99.997,100.43,0.00351445,0.152378,20.8258,52.0001,-0.0395646,0.0,0.0
243,60.5,31.8344,35.4822,151.607,99.9141,100.035,0.00355504,0.151089,20.8276,51.9501,-0.011072,0.0,0.0
246,61.25,31.7303,34.9186,151.91,99.8617,99.8968,0.00364651,0.149373,20.8301,51.89,-0.00321543,0.0,0.0
249,62,31.7454,35.4129,156.082,99.8203,99.9352,0.00375032,0.147804,20.8328,51.84,-0.0105368,0.0,0.0
252,62.75,31.7495,35.4589,151.948,99.761,100.062,0.00385698,0.14638,20.836,51.82,-0.0275857,0.0,0.0
255,63.5,31.8974,35.5358,151.552,99.7057,100.248,0.00395898,0.145097,20.8388,51.81,-0.0496436,0.0,0.0
258,64.25,31.0719,34.3422,154.151,99.6578,100.541,0.00404367,0.143557,20.841,51.7499,-0.0807995,0.0,0.0
261,65,31.8209,35.2201,153.19,99.6127,100.168,0.00415649,0.142435,20.8426,51.7299,-0.0509151,0.0,0.0
264,65.75,31.4255,35.4886,159.097,99.6159,100.317,0.00423873,0.141347,20.8438,51.6898,-0.0642078,0.0,0.0
267,66.5,31.6203,35.1704,150.065,99.6155,99.8968,0.00436775,0.140092,20.8452,51.6498,-0.0258279,0.0,0.0
270,67.25,31.317,35.2282,151.657,99.6708,99.7337,0.00449124,0.139042,20.8471,51.6098,-0.00577744,0.0,0.0
273,68,31.6088,34.5913,151.855,99.6801,99.8277,0.00466348,0.138163,20.849,51.6298,-0.013552,0.0,0.0
276,68.75,31.8636,35.0638,157.206,99.6907,100.319,0.0048211,0.137427,20.8508,51.5897,-0.0575555,0.0,0.0
279,69.5,31.5516,34.8884,154.352,99.7126,99.9371,0.00494968,0.136664,20.8525,51.5397,-0.0205987,0.0,0.0
282,70.25,31.5936,35.0267,154.996,99.7297,100.372,0.00508185,0.135876,20.8544,51.4997,-0.0587907,0.0,0.0
285,71,31.2523,34.5703,156.591,99.7638,100.068,0.00519747,0.135071,20.8557,51.4696,-0.0278519,0.0,0.0
288,71.75,31.3791,34.7917,149.951,99.7967,100.143,0.00528996,0.134198,20.8567,51.3996,-0.0317669,0.0,0.0
291,72.5,31.486,34.9674,151.553,99.8349,99.7322,0.00535868,0.133439,20.8579,51.3595,0.00942789,0.0,0.0
294,73.25,32.256,34.8708,152.838,99.8707,99.7879,0.00541189,0.132241,20.859,51.3996,0.00759721,0.0,0.0
297,74,31.2728,34.6993,156.831,99.9093,100.823,0.00545177,0.131007,20.8597,51.3495,-0.0834241,0.0,0.0
300,74.75,31.1133,34.79,154.008,99.9487,100.262,0.00550834,0.129954,20.8607,51.3295,-0.0287085,0.0,0.0
303,75.5,30.8914,34.6128,151.849,99.993,100.504,0.00557663,0.128883,20.8619,51.2995,-0.0467181,0.0,0.0
306,76.25,30.6457,34.4901,154.372,100.011,100.569,0.00567265,0.128103,20.8631,51.2694,-0.0509827,0.0,0.0
309,77,30.7617,34.6238,156.753,100.047,100.642,0.00582716,0.127526,20.8643,51.2294,-0.0543182,0.0,0.0
312,77.75,31.0685,34.5152,154.262,100.081,100.558,0.0059751,0.127092,20.8653,51.1894,-0.043585,0.0,0.0
315,78.5,31.6234,34.1253,150.839,100.106,100.332,0.00614332,0.126713,20.866,51.1593,-0.0207082,0.0,0.0
318,79.25,31.6194,33.5408,153.871,100.118,100.42,0.006306,0.126328,20.8666,51.1093,-0.0276427,0.0,0.0
321,80,31.408,33.9283,153.28,100.16,100.462,0.00643758,0.125732,20.867,51.0392,-0.0275912,0.0,0.0
324,80.75,31.5568,34.3271,154.031,100.193,100.663,0.00652653,0.124958,20.8672,51.0092,-0.0428444,0.0,0.0
327,81.5,31.1783,33.9586,151.034,100.199,100.348,0.00658362,0.124042,20.8677,50.9892,-0.0135996,0.0,0.0
330,82.25,31.2208,33.7703,154.503,100.22,100.268,0.00662737,0.123054,20.8684,50.9391,-0.00435104,0.0,0.0
333,83,31.1833,34.3631,152.4,100.241,100.359,0.00666857,0.122318,20.8689,50.8991,-0.0107883,0.0,0.0
336,83.75,30.7536,33.9284,153.954,100.26,100.434,0.00671928,0.121754,20.8695,50.8991,-0.0159101,0.0,0.0
339,84.5,31.1753,33.7322,155.963,100.274,100.722,0.0067746,0.121365,20.8704,50.9091,-0.0408248,0.0,0.0
342,85.25,30.9562,33.4864,151.151,100.282,100.842,0.00683122,0.121081,20.871,50.8891,-0.0509854,0.0,0.0
345,86,30.7868,33.6099,154.296,100.298,100.829,0.0068725,0.120767,20.8715,50.8791,-0.0483608,0.0,0.0
348,86.75,30.7326,32.9995,153.08,100.321,101.004,0.00690075,0.120538,20.8718,50.849,-0.0621874,0.0,0.0
351,87.5,30.6472,33.5569,154.992,100.312,100.672,0.00691998,0.120179,20.8721,50.839,-0.0328403,0.0,0.0
354,88.25,30.9696,33.7924,149.827,100.309,101.164,0.00693167,0.119918,20.8722,50.7589,-0.0777418,0.0,0.0
357,89,30.457,33.8632,153.337,100.316,100.871,0.00694019,0.119577,20.873,50.7289,-0.0506071,0.0,0.0
360,89.75,31.293,34.2597,152.87,100.32,100.513,0.00698147,0.119131,20.8739,50.7189,-0.0175555,0.0,0.0
363,90.5,30.9977,33.7662,152.725,100.321,100.848,0.00703356,0.118577,20.8747,50.6889,-0.0480336,0.0,0.0
366,91.25,31.3052,34.1226,155.798,100.32,100.889,0.00708979,0.118053,20.8753,50.6488,-0.0517673,0.0,0.0
369,92,31.0178,33.7667,152.297,100.311,101.149,0.00714593,0.117597,20.8758,50.6288,-0.0761659,0.0,0.0
372,92.75,30.7001,34.0106,152.276,100.308,101.24,0.00719794,0.117224,20.8765,50.5988,-0.0846777,0.0,0.0
375,93.5,31.0051,33.4931,154.767,100.304,100.344,0.00723586,0.116802,20.8773,50.5387,-0.00367807,0.0,0.0
378,94.25,31.2249,33.4983,150.939,100.281,100.713,0.00728938,0.116417,20.8778,50.5187,-0.0393776,0.0,0.0
381,95,30.1498,33.691,155.368,100.263,101.001,0.00734785,0.116001,20.8782,50.4787,-0.0671885,0.0,0.0
384,95.75,30.4534,33.6848,157.588,100.266,100.684,0.00739877,0.115625,20.8785,50.4587,-0.0381253,0.0,0.0
387,96.5,31.0208,33.649,153.258,100.26,100.87,0.00743782,0.115296,20.8787,50.4487,-0.0555607,0.0,0.0
390,97.25,30.8511,33.6864,151.065,100.24,100.681,0.00744685,0.115015,20.8792,50.4086,-0.0402325,0.0,0.0
393,98,31.0372,33.5115,151.468,100.211,100.82,0.00742876,0.114796,20.8801,50.3385,-0.0554838,0.0,0.0
396,98.75,31.1956,33.5188,152.043,100.227,100.754,0.00739989,0.11468,20.8806,50.2885,-0.0480605,0.0,0.0
399,99.5,30.4264,33.1509,158.426,100.212,100.347,0.00735154,0.114417,20.8811,50.2585,-0.0123299,0.0,0.0
402,100.25,30.655,33.5449,153.819,100.199,100.575,0.00729066,0.114163,20.8815,50.2685,-0.0343747,0.0,0.0
405,101,30.4821,33.359,156.62,100.162,100.55,0.00724627,0.11387,20.8818,50.2485,-0.0354818,0.0,0.0
408,101.75,30.8087,32.5065,155.16,100.148,100.272,0.00722414,0.113462,20.882,50.2485,-0.0112775,0.0,0.0
411,102.5,29.3862,32.9889,156.629,100.129,100.286,0.00722548,0.113043,20.8821,50.1884,-0.0143383,0.0,0.0
414,103.25,30.4482,33.2269,151.101,100.119,100.04,0.00725756,0.112671,20.8827,50.1584,0.00723605,0.0,0.0
417,104,30.2557,32.8478,154.466,100.087,99.9073,0.0073331,0.112271,20.8833,50.1383,0.0164396,0.0,0.0
420,104.75,30.5255,32.3007,150.705,100.059,99.9745,0.00740475,0.111711,20.8837,50.0983,0.00771723,0.0,0.0
423,105.5,30.923,33.3659,155.061,100.06,100.259,0.00752735,0.11104,20.884,50.0483,-0.0181611,0.0,0.0
426,106.25,30.0306,32.5147,158.312,100.042,100.024,0.00765228,0.110296,20.8843,50.0182,0.00162039,0.0,0.0
429,107,30.9707,32.6864,156.223,100.02,100.264,0.00780414,0.10947,20.8844,49.9882,-0.0223325,0.0,0.0
432,107.75,30.553,32.8383,158.843,99.997,99.928,0.00801516,0.108384,20.8845,49.9582,0.00632708,0.0,0.0
435,108.5,30.2899,32.7174,149.648,99.9873,100.301,0.00825851,0.107176,20.8844,49.9482,-0.0286778,0.0,0.0
438,109.25,30.4236,32.4404,153.342,99.9678,100.402,0.00851583,0.106118,20.8852,49.9081,-0.0397066,0.0,0.0
441,110,30.5871,32.6626,154.898,99.9552,99.9601,0.00882127,0.105241,20.8861,49.8881,-0.00045374,0.0,0.0
444,110.75,30.4005,32.6302,156.496,99.93,99.8109,0.00913907,0.104616,20.8868,49.8781,0.0109223,0.0,0.0
447,111.5,30.0971,31.9123,150.53,99.919,100.158,0.00944754,0.104167,20.8876,49.8581,-0.0218662,0.0,0.0
450,112.25,30.1521,32.5906,153.633,99.9028,99.8762,0.00967242,0.103721,20.8885,49.818,0.00243922,0.0,0.0
453,113,30.6233,32.4059,152.695,99.8808,99.9222,0.0099677,0.103329,20.8888,49.798,-0.00379496,0.0,0.0
456,113.75,29.5711,32.3869,155.425,99.8666,99.7989,0.0102225,0.103017,20.8888,49.768,0.00621141,0.0,0.0
459,114.5,30.5688,32.5024,151.501,99.8638,99.7106,0.0104251,0.102744,20.8888,49.768,0.0140575,0.0,0.0
462,115.25,30.2589,32.279,154.921,99.8447,99.7447,0.0106229,0.102527,20.8888,49.748,0.00917699,0.0,0.0
465,116,30.4142,32.2153,157.41,99.8317,99.7159,0.0107934,0.102241,20.8888,49.7179,0.0106278,0.0,0.0
468,116.75,29.8936,32.2331,152.893,99.8166,100.091,0.0109259,0.101924,20.8888,49.6779,-0.0251107,0.0,0.0
471,117.5,29.6045,32.5831,154.808,99.8174,99.6713,0.0110015,0.101505,20.889,49.6479,0.013424,0.0,0.0
474,118.25,29.6368,32.3573,154.057,99.8004,99.451,0.0110288,0.100819,20.8896,49.6279,0.0321207,0.0,0.0
477,119,29.4864,32.1893,156.069,99.7878,99.4717,0.0110166,0.100155,20.89,49.6078,0.0290645,0.0,0.0
480,119.75,29.9536,32.302,153.788,99.7748,99.5532,0.0109627,0.0996022,20.8907,49.5678,0.0203629,0.0,0.0
483,120.5,30.0152,31.7808,153.778,99.7784,99.5038,0.0109062,0.0989662,20.8915,49.5378,0.0252462,0.0,0.0
486,121.25,30.2664,32.4376,156.525,99.7768,99.4784,0.0108577,0.0984285,20.892,49.5378,0.0274381,0.0,0.0
489,122,29.9567,31.9699,152.615,99.7569,99.4635,0.0108488,0.098005,20.8926,49.4677,0.0269808,0.0,0.0
492,122.75,29.7887,31.568,155.064,99.7362,99.0053,0.010888,0.0976813,20.8935,49.4877,0.0673762,0.0,0.0
495,123.5,30.002,31.8597,152.867,99.7289,99.0989,0.0109471,0.0973065,20.8941,49.4277,0.0580512,0.0,0.0
498,124.25,29.9322,31.5801,152.676,99.7333,99.1027,0.0111266,0.0968066,20.8946,49.4076,0.0581077,0.0,0.0
501,125,29.8485,31.6113,155.126,99.7333,99.2447,0.0113316,0.0958719,20.8949,49.3676,0.0449881,0.0,0.0
504,125.75,29.427,31.5513,155.148,99.7122,99.6799,0.0115517,0.0947911,20.8952,49.3476,0.00296759,0.0,0.0
507,126.5,29.5688,31.3546,156.729,99.6972,99.0619,0.0117789,0.0935763,20.896,49.3176,0.0585558,0.0,0.0
510,127.25,29.1219,31.4782,151.975,99.7045,99.1948,0.0120483,0.0922518,20.8966,49.3075,0.046946,0.0,0.0
513,128,29.4846,31.8749,155.414,99.6882,99.1061,0.0122888,0.0909056,20.897,49.2875,0.0536533,0.0,0.0
516,128.75,28.9976,31.185,153.584,99.6952,99.3311,0.0126228,0.0892735,20.8978,49.2375,0.0335123,0.0,0.0
519,129.5,29.9597,31.1798,157.64,99.6781,99.1641,0.0130001,0.087411,20.8992,49.2075,0.0473556,0.0,0.0
522,130.25,29.3609,31.4886,156.556,99.6809,99.1617,0.0132723,0.086459,20.9001,49.1974,0.047839,0.0,0.0
525,131,29.5703,30.6473,154.234,99.6683,99.1411,0.0136503,0.0850022,20.9015,49.1874,0.0485875,0.0,0.0
528,131.75,29.4382,30.9537,156.274,99.648,99.5412,0.0140345,0.0838812,20.9032,49.1674,0.0098206,0.0,0.0
531,132.5,29.6237,31.417,155.805,99.6468,99.0787,0.014424,0.08307,20.9044,49.1474,0.0523733,0.0,0.0
534,133.25,29.0387,30.8752,160.203,99.6472,99.1291,0.0147483,0.0825315,20.9055,49.1174,0.0477543,0.0,0.0
537,134,28.913,30.7346,154.649,99.6387,99.453,0.0150539,0.0822716,20.9067,49.0973,0.0170903,0.0,0.0
540,134.75,29.0877,31.0573,156.401,99.6265,99.441,0.0153555,0.0821385,20.9076,49.0773,0.017074,0.0,0.0
543,135.5,29.1918,30.5987,157.694,99.6204,99.3762,0.0155754,0.0821423,20.9082,49.0473,0.022483,0.0,0.0
546,136.25,29.3212,31.3311,149.418,99.6383,98.8829,0.0157685,0.0823174,20.9087,49.0273,0.0697055,0.0,0.0
549,137,28.88,30.5187,151.559,99.6236,99.1737,0.0159651,0.0825536,20.9096,48.9972,0.0414645,0.0,0.0
552,137.75,28.9471,30.9469,153.398,99.6135,99.3877,0.0161288,0.0829115,20.91,48.9572,0.0207857,0.0,0.0
555,138.5,29.4241,31.2524,158.428,99.6001,99.1406,0.0162646,0.0835089,20.9099,48.9272,0.0423558,0.0,0.0
558,139.25,28.6825,31.2919,155.854,99.6058,99.6828,0.016377,0.0841213,20.9098,48.9172,-0.00708112,0.0,0.0
561,140,29.3919,31.2097,155.389,99.6139,99.0365,0.0164705,0.0847132,20.9093,48.9072,0.0532516,0.0,0.0
564,140.75,28.6624,30.9168,151.454,99.609,99.6314,0.0165394,0.0852641,20.9087,48.8571,-0.00206248,0.0,0.0
567,141.5,29.3656,31.1999,152.914,99.6098,99.7082,0.0165909,0.0857839,20.9083,48.8271,-0.00904354,0.0,0.0
570,142.25,29.0027,30.9934,155.88,99.6102,99.7068,0.0166168,0.0862131,20.9076,48.8071,-0.00887411,0.0,0.0
573,143,28.7321,31.1995,152.752,99.6167,99.4458,0.0166357,0.086585,20.9069,48.777,0.0157354,0.0,0.0
576,143.75,29.2581,31.3058,152.721,99.6151,99.1358,0.0166321,0.0868425,20.9063,48.747,0.0441818,0.0,0.0
579,144.5,29.3323,31.0897,149.853,99.607,99.488,0.0166362,0.0869638,20.9059,48.727,0.0109495,0.0,0.0
582,145.25,28.6136,31.1855,153.088,99.6078,99.3076,0.0166442,0.0869932,20.9056,48.737,0.0276515,0.0,0.0
585,146,29.1771,30.9392,156.209,99.6151,99.4957,0.0166538,0.0869599,20.9054,48.707,0.010991,0.0,0.0
588,146.75,28.8393,30.9089,154.328,99.6127,98.799,0.016653,0.0869463,20.9053,48.6869,0.0751333,0.0,0.0
591,147.5,26.6654,29.4655,152.071,99.6037,98.6421,0.0166402,0.0869763,20.9052,48.6669,0.0888706,0.0,0.0
594,148.25,26.8613,29.2689,157.221,99.5993,98.5922,0.0166257,0.0870424,20.9051,48.6369,0.0930949,0.0,0.0
597,149,27.288,28.8845,155.901,99.6151,98.75,0.0165824,0.0871095,20.905,48.5969,0.0798977,0.0,0.0
600,149.75,27.2096,28.9726,152.967,99.6277,99.2889,0.0165508,0.0871374,20.905,48.5768,0.0312087,0.0,0.0
603,150.5,27.2843,28.4119,154.001,99.6204,99.001,0.0164969,0.0871732,20.9054,48.5568,0.0571343,0.0,0.0
606,151.25,26.8601,29.0953,155.668,99.6147,98.9751,0.0164505,0.0872259,20.9059,48.5368,0.0590093,0.0,0.0
609,152,26.8231,28.8255,157.025,99.6338,99.2462,0.0164045,0.0872939,20.9063,48.5068,0.0357099,0.0,0.0
612,152.75,27.0903,28.9078,154.78,99.6314,98.7707,0.0163498,0.0872938,20.9065,48.4667,0.0794776,0.0,0.0
615,153.5,26.9731,29.0797,158.661,99.6297,99.143,0.0162977,0.0871875,20.9067,48.4767,0.044862,0.0,0.0
618,154.25,26.9619,28.6889,154.809,99.6375,98.9223,0.0162735,0.0868154,20.9069,48.4467,0.0659875,0.0,0.0
621,155,26.6579,29.0659,157.238,99.6314,99.1166,0.0162639,0.0863524,20.907,48.4067,0.0474501,0.0,0.0
624,155.75,26.7108,28.5667,158.778,99.6444,98.9923,0.0163418,0.0859332,20.907,48.3867,0.0601377,0.0,0.0
627,156.5,27.0716,28.5851,153.812,99.6464,98.8839,0.0164648,0.0853332,20.9071,48.3566,0.0703644,0.0,0.0
630,157.25,27.0536,28.4702,155.252,99.6529,98.81,0.0166679,0.0848725,20.9071,48.3466,0.0778093,0.0,0.0
633,158,27.1171,28.3658,157.797,99.6521,98.8561,0.0168118,0.0846091,20.9071,48.3166,0.0734652,0.0,0.0
636,158.75,26.303,28.7692,154.479,99.6647,99.1497,0.0170293,0.0843049,20.9074,48.2766,0.0474534,0.0,0.0
639,159.5,27.0812,28.5056,156.257,99.6732,98.7908,0.0171879,0.0839946,20.908,48.2665,0.0814564,0.0,0.0
642,160.25,26.284,28.4324,150.446,99.6598,99.5672,0.01742,0.0836998,20.9093,48.2565,0.00852023,0.0,0.0
645,161,26.4095,28.6955,158.603,99.6631,99.2332,0.0176066,0.0834318,20.9102,48.2165,0.0395945,0.0,0.0
648,161.75,27.2243,28.423,155.244,99.6822,99.2231,0.0177463,0.0832154,20.9108,48.1965,0.0422787,0.0,0.0
651,162.5,26.5045,28.521,155.567,99.6927,99.3028,0.0178542,0.0829957,20.9113,48.1564,0.0358991,0.0,0.0
654,163.25,26.7028,28.5603,157.124,99.6854,99.2323,0.0179407,0.0827294,20.9117,48.1264,0.0417362,0.0,0.0
657,164,26.7019,28.107,156.802,99.6854,98.8954,0.0180037,0.0823881,20.9119,48.1164,0.0728824,0.0,0.0
660,164.75,26.8518,28.2883,153.27,99.7094,99.1449,0.0180672,0.0820764,20.9121,48.0964,0.052003,0.0,0.0
663,165.5,26.0313,28.5826,156.153,99.7163,99.0787,0.0181339,0.0816813,20.9122,48.0764,0.0587576,0.0,0.0
666,166.25,26.5621,28.6255,155.642,99.7126,99.4107,0.018207,0.0812883,20.9123,48.0563,0.0277756,0.0,0.0
669,167,26.7952,28.604,152.806,99.7354,98.8441,0.0182874,0.0808252,20.9124,48.0163,0.0822302,0.0,0.0
672,167.75,26.9607,28.7149,154.526,99.7207,99.1325,0.018379,0.0804123,20.9125,47.9963,0.0542005,0.0,0.0
675,168.5,26.9366,28.3036,153.989,99.7346,99.2299,0.0184445,0.0796499,20.9125,47.9663,0.0464745,0.0,0.0
678,169.25,26.8738,28.1818,153.82,99.7317,99.666,0.0184916,0.0789394,20.9132,47.9462,0.00603789,0.0,0.0
681,170,26.8025,28.5795,159.603,99.7325,99.1142,0.0185026,0.0781569,20.9137,47.9262,0.0569682,0.0,0.0
684,170.75,26.5547,28.6681,151.054,99.7533,99.1075,0.0185106,0.0772927,20.914,47.9062,0.0594921,0.0,0.0
687,171.5,26.3708,28.5659,151.873,99.7679,99.4467,0.0185165,0.0765375,20.9152,47.8962,0.0295348,0.0,0.0
690,172.25,26.465,28.5783,153.59,99.7533,99.3297,0.0185265,0.0755683,20.9164,47.8662,0.0389823,0.0,0.0
693,173,26.8515,28.1202,154.734,99.752,99.4765,0.0185436,0.0746709,20.9173,47.8261,0.0253399,0.0,0.0
696,173.75,26.7906,28.2121,152.787,99.7756,99.1315,0.0185541,0.0739355,20.9184,47.8061,0.0593262,0.0,0.0
699,174.5,26.3621,28.6752,156.021,99.7963,99.4746,0.01854,0.0732111,20.9194,47.7661,0.0295816,0.0,0.0
702,175.25,26.731,28.493,159.393,99.8122,98.822,0.0185074,0.0725511,20.9201,47.7661,0.0913252,0.0,0.0
705,176,26.4848,28.9582,154.254,99.8057,98.7131,0.0184616,0.0719111,20.9213,47.746,0.10083,0.0,0.0
708,176.75,26.5013,28.0352,156.907,99.8211,99.3263,0.0184107,0.0714008,20.9226,47.726,0.0455205,0.0,0.0
711,177.5,26.3821,28.6287,159.808,99.8378,99.6703,0.0183736,0.0709869,20.9237,47.686,0.0153767,0.0,0.0
714,178.25,26.2798,28.6233,150.657,99.8337,99.3829,0.0183387,0.0706853,20.9245,47.6459,0.0414558,0.0,0.0
717,179,26.0723,28.9804,154.037,99.83,99.0288,0.0183147,0.0703817,20.9251,47.6459,0.0738173,0.0,0.0
720,179.75,26.6564,28.0978,157.788,99.8434,99.4184,0.0182978,0.07003,20.9256,47.6259,0.039078,0.0,0.0
723,180.5,26.4475,28.6516,157.474,99.8715,99.5571,0.0182875,0.0696408,20.9259,47.5959,0.0288817,0.0,0.0
726,181.25,26.444,28.3124,154.012,99.8662,99.2346,0.0182787,0.0692253,20.9261,47.5659,0.0581142,0.0,0.0
729,182,26.1854,28.1132,152.763,99.8735,98.8887,0.0182716,0.0689224,20.9269,47.5358,0.0907738,0.0,0.0
732,182.75,25.8196,28.6574,154.301,99.882,99.1464,0.018268,0.0686598,20.9277,47.5158,0.0677199,0.0,0.0
735,183.5,26.5699,28.4289,159.393,99.8784,99.3061,0.0182677,0.0684606,20.9275,47.5058,0.052635,0.0,0.0
738,184.25,26.4139,28.4063,154.176,99.8906,99.119,0.0182753,0.0683023,20.9273,47.4858,0.0710297,0.0,0.0
741,185,26.2721,28.3435,157.976,99.9015,99.025,0.0182809,0.0681659,20.9271,47.4658,0.0807312,0.0,0.0
744,185.75,26.5192,27.8669,154.896,99.9089,99.049,0.0183063,0.0679895,20.927,47.4458,0.0791821,0.0,0.0
747,186.5,26.5755,28.7356,154.113,99.9202,98.8566,0.0183235,0.0677291,20.927,47.4157,0.0980369,0.0,0.0
750,187.25,26.4358,27.9652,152.998,99.9186,98.7476,0.0183319,0.0675521,20.9269,47.3857,0.107986,0.0,0.0
753,188,25.5425,27.7681,154.444,99.9324,99.1411,0.0183221,0.0673245,20.9269,47.3557,0.0728272,0.0,0.0
756,188.75,26.3341,28.3601,152.374,99.9235,99.4016,0.0182986,0.067119,20.9271,47.3256,0.0479661,0.0,0.0
759,189.5,26.7731,28.4898,152.208,99.9446,98.9559,0.0182645,0.0669693,20.9276,47.3156,0.0910722,0.0,0.0
762,190.25,26.6657,28.4777,158.2,99.9515,99.0067,0.0182224,0.0668755,20.928,47.2856,0.0869984,0.0,0.0
765,191,26.4175,28.3465,157.866,99.9548,98.9175,0.0181577,0.0668335,20.9286,47.2656,0.095557,0.0,0.0
768,191.75,26.208,28.5216,153.838,99.9511,99.1526,0.018096,0.066715,20.9293,47.2456,0.0734761,0.0,0.0
771,192.5,26.7117,28.2377,150.934,99.9767,99.4295,0.0179926,0.0665912,20.9299,47.2355,0.0502797,0.0,0.0
774,193.25,26.079,27.8421,149.092,99.9865,99.0979,0.0178743,0.066501,20.9303,47.1955,0.0817692,0.0,0.0
777,194,25.8078,27.9512,154.269,99.9775,99.3493,0.0177576,0.0664275,20.9306,47.1655,0.0577387,0.0,0.0
780,194.75,26.2476,28.0435,156.387,99.9787,99.5369,0.0176711,0.0663608,20.9309,47.1655,0.0405698,0.0,0.0
783,195.5,25.7546,28.1415,156.649,99.9893,99.5744,0.0176211,0.0664582,20.931,47.1355,0.0380928,0.0,0.0
786,196.25,25.9935,28.7172,156.108,100.005,99.2869,0.0176078,0.0666464,20.9305,47.1054,0.0659854,0.0,0.0
789,197,26.5182,28.2351,156.8,100.01,99.6809,0.0176544,0.0668566,20.9301,47.0854,0.0301976,0.0,0.0
792,197.75,26.171,27.6674,157.968,100.011,99.5067,0.0177578,0.0670494,20.9299,47.0554,0.046292,0.0,0.0
795,198.5,25.9369,28.4657,156.31,100.012,99.4045,0.0178628,0.0671607,20.9297,47.0153,0.0557798,0.0,0.0
798,199.25,25.6475,28.4267,152.831,100.019,99.5931,0.0180471,0.0672293,20.9295,47.0053,0.039127,0.0,0.0
801,200,26.1874,28.2348,156.224,100.025,99.298,0.0182482,0.0671958,20.9294,46.9753,0.0668657,0.0,0.0
804,200.75,26.1312,28.1467,152.859,100.027,99.6396,0.0184306,0.0671861,20.9293,46.9653,0.0355163,0.0,0.0
807,201.5,26.1405,27.8912,150.857,100.026,99.7212,0.0185565,0.0672041,20.9293,46.9453,0.0279835,0.0,0.0
810,202.25,26.173,27.9677,153.404,100.054,99.9841,0.0186267,0.067259,20.9292,46.9152,0.00642857,0.0,0.0
813,203,26.5428,28.0433,156.554,100.059,99.7121,0.0186459,0.067299,20.929,46.8852,0.0317964,0.0,0.0
816,203.75,26.0241,28.0065,155.838,100.056,99.5417,0.0185937,0.0673282,20.9288,46.8552,0.0471611,0.0,0.0
819,204.5,26.4189,28.3478,153.183,100.048,99.7413,0.0185174,0.067266,20.9286,46.8252,0.0281403,0.0,0.0
822,205.25,26.3068,28.2585,153.235,100.08,99.4688,0.0184455,0.0672206,20.9285,46.8151,0.0561054,0.0,0.0
825,206,26.1313,28.2678,156.711,100.07,100.142,0.0183931,0.0671728,20.9284,46.7851,-0.00661557,0.0,0.0
828,206.75,26.4599,28.0134,158.915,100.068,100.168,0.0183511,0.0671549,20.9286,46.7751,-0.00912771,0.0,0.0
831,207.5,25.5836,28.1645,152.887,100.065,99.7629,0.0183285,0.0671814,20.9287,46.7551,0.0276831,0.0,0.0
834,208.25,26.4485,28.2094,151.568,100.082,99.7279,0.0183207,0.0671714,20.9288,46.7451,0.0324253,0.0,0.0
837,209,26.4769,28.4903,156.367,100.087,99.4947,0.0183235,0.0671747,20.9289,46.715,0.0543894,0.0,0.0
840,209.75,26.6466,28.333,156.199,100.089,99.5513,0.0183333,0.067209,20.929,46.705,0.0493641,0.0,0.0
843,210.5,25.9842,27.9395,150.972,100.089,99.7831,0.0183501,0.0672208,20.929,46.655,0.0280282,0.0,0.0
846,211.25,26.4848,28.2714,156.217,100.108,99.8123,0.0183663,0.0672001,20.929,46.645,0.0270875,0.0,0.0
849,212,25.9958,28.1371,156.286,100.125,99.3949,0.0184035,0.0671726,20.9291,46.615,0.0670033,0.0,0.0
852,212.75,26.162,27.9247,154.194,100.123,99.7509,0.0184306,0.0671525,20.9291,46.5949,0.034064,0.0,0.0
855,213.5,25.8383,28.048,153.267,100.116,99.702,0.0184678,0.067107,20.9291,46.5749,0.0379286,0.0,0.0
858,214.25,26.367,27.9478,154.15,100.118,99.6881,0.0184828,0.0670212,20.9291,46.5649,0.0394673,0.0,0.0
861,215,25.8177,28.3103,157.398,100.133,100.192,0.0184758,0.0669465,20.9291,46.5149,-0.00545346,0.0,0.0
864,215.75,26.5093,28.2564,155.673,100.137,99.7236,0.0184295,0.0668207,20.9291,46.5048,0.0379145,0.0,0.0
867,216.5,25.9281,28.5793,156.098,100.149,99.5993,0.0183759,0.0667289,20.9291,46.4948,0.0504513,0.0,0.0
870,217.25,26.1397,28.0054,154.034,100.144,99.3076,0.0183307,0.0667006,20.9291,46.4748,0.0768759,0.0,0.0
873,218,26.4336,28.0764,151.748,100.151,99.4746,0.0183114,0.0667458,20.9291,46.4448,0.0620804,0.0,0.0
876,218.75,25.5926,28.3748,154.766,100.16,99.7634,0.0183168,0.0668205,20.9291,46.4348,0.0363756,0.0,0.0
879,219.5,26.6164,28.2014,155.632,100.159,99.8997,0.0183236,0.0668433,20.9291,46.4048,0.0237607,0.0,0.0
882,220.25,26.1193,28.0758,159.161,100.16,99.7639,0.0183394,0.0668498,20.9291,46.3647,0.036331,0.0,0.0
885,221,25.8747,28.6259,157.934,100.173,99.6391,0.0183644,0.0667375,20.9291,46.3547,0.0489448,0.0,0.0
888,221.75,26.2487,28.2337,155.686,100.175,99.845,0.0183884,0.0666056,20.9296,46.3347,0.030264,0.0,0.0
891,222.5,26.275,28.0557,151.428,100.177,99.5983,0.0183959,0.0665722,20.9301,46.3046,0.053104,0.0,0.0
894,223.25,26.1778,28.5199,157.051,100.173,99.4582,0.0183842,0.0665331,20.9305,46.2746,0.0656276,0.0,0.0
897,224,26.288,28.3667,151.639,100.183,99.8642,0.0183484,0.0665216,20.9307,46.2646,0.0292082,0.0,0.0
900,224.75,25.9227,28.1867,152.49,100.203,99.7029,0.0183114,0.0665526,20.9307,46.2446,0.0457911,0.0,0.0
903,225.5,26.1593,28.1701,152.458,100.199,100.13,0.0182798,0.0666924,20.9303,46.2346,0.00634454,0.0,0.0
906,226.25,25.8487,28.6938,155.463,100.183,99.8512,0.0182354,0.0668442,20.93,46.2046,0.0303968,0.0,0.0
909,227,26.4399,27.7423,154.211,100.209,99.6814,0.018203,0.0669549,20.9297,46.1745,0.0483333,0.0,0.0
912,227.75,26.401,27.9742,154.469,100.208,99.5806,0.0181483,0.0670355,20.9296,46.1545,0.0575597,0.0,0.0
915,228.5,26.5202,28.4156,151.269,100.215,99.7605,0.0180976,0.0670317,20.9294,46.1345,0.0416178,0.0,0.0
918,229.25,25.7246,27.9603,156.794,100.201,100.022,0.0180559,0.0670289,20.9296,46.1045,0.0163306,0.0,0.0
921,230,24.6308,28.0222,150.588,100.213,99.7855,0.0180201,0.0671104,20.9301,46.0944,0.0391411,0.0,0.0
924,230.75,25.7461,28.3948,158.892,100.225,100.001,0.0179946,0.0672137,20.9305,46.0844,0.0204632,0.0,0.0
927,231.5,26.124,28.1878,158.352,100.241,99.7217,0.0179808,0.0673232,20.9307,46.0444,0.0475631,0.0,0.0
930,232.25,26.2018,28.0628,153.225,100.224,99.8977,0.017979,0.0674294,20.9307,46.0244,0.0298798,0.0,0.0
933,233,26.2997,28.6234,152.576,100.222,99.6727,0.0179811,0.0674775,20.9303,46.0044,0.0503144,0.0,0.0
936,233.75,26.0733,28.0026,154.102,100.242,99.6425,0.0179749,0.0675,20.93,46.0044,0.0549875,0.0,0.0
939,234.5,26.2709,28.147,151.228,100.242,100.43,0.017964,0.067433,20.9297,45.9843,-0.0171124,0.0,0.0
942,235.25,26.3409,27.5268,156.322,100.24,99.8109,0.0179449,0.0673841,20.9296,45.9543,0.0392944,0.0,0.0
945,236,25.9072,27.858,156.345,100.248,99.8157,0.0179289,0.067432,20.9294,45.9143,0.0395597,0.0,0.0
948,236.75,26.0482,27.8776,156.559,100.25,99.8968,0.0179136,0.0675255,20.9294,45.8943,0.0323067,0.0,0.0
951,237.5,26.5896,28.6466,151.876,100.257,100.29,0.0179101,0.0676648,20.9293,45.8742,-0.00298821,0.0,0.0
954,238.25,26.4391,28.0622,157.434,100.257,99.9553,0.0179232,0.0678455,20.9292,45.8542,0.027646,0.0,0.0
957,239,25.8821,28.1884,155.068,100.251,99.7399,0.0179463,0.0680817,20.9292,45.8342,0.0468537,0.0,0.0
960,239.75,26.6445,28.3398,156.111,100.259,100.263,0.0179804,0.0683125,20.9292,45.8142,-0.000392584,0.0,0.0
963,240.5,25.9508,27.4111,157.002,100.279,99.9467,0.0180249,0.0685751,20.9285,45.7942,0.0304414,0.0,0.0
966,241.25,25.7607,27.8902,161.623,100.266,99.856,0.0180817,0.0688852,20.928,45.7741,0.0375698,0.0,0.0
969,242,26.1093,28.0748,154.031,100.275,99.9347,0.0181649,0.0691113,20.9277,45.7541,0.0310966,0.0,0.0
972,242.75,25.8056,27.8049,159.662,100.279,100.189,0.01828,0.0692761,20.9272,45.7341,0.00814274,0.0,0.0
975,243.5,25.8766,28.0362,154.269,100.288,99.964,0.0183675,0.0693544,20.9264,45.7241,0.0296382,0.0,0.0
978,244.25,26.0944,28.0146,155.753,100.299,99.7231,0.0184374,0.0693969,20.9259,45.6841,0.0527392,0.0,0.0
981,245,26.2536,28.3172,153.353,100.282,99.9457,0.0184729,0.0694216,20.9255,45.6841,0.0307527,0.0,0.0
984,245.75,26.0481,27.7837,152.685,100.297,99.7979,0.0184951,0.0693561,20.9252,45.654,0.0456803,0.0,0.0
987,246.5,26.4182,28.3514,152.887,100.301,100.061,0.0185051,0.0692497,20.925,45.634,0.0219122,0.0,0.0
990,247.25,26.0831,27.622,156.252,100.304,100.145,0.0185164,0.0691471,20.9248,45.624,0.0145242,0.0,0.0
993,248,25.7331,28.0398,153.807,100.299,100.338,0.0185245,0.0690284,20.9247,45.604,-0.00355353,0.0,0.0
996,248.75,26.3317,27.8808,152.213,100.311,99.8402,0.0185753,0.0689231,20.9246,45.594,0.0430667,0.0,0.0
999,249.5,25.8596,27.5547,151.307,100.321,99.5998,0.0186287,0.0686584,20.9246,45.5339,0.0660764,0.0,0.0
1002,250.25,25.9519,28.0115,153.305,100.31,100.155,0.0186732,0.0684068,20.9252,45.5239,0.0141589,0.0,0.0
1005,251,25.8466,28.2075,155.019,100.309,100.45,0.0187031,0.0682061,20.9256,45.4839,-0.0129445,0.0,0.0
1008,251.75,25.7814,27.7127,151.245,100.328,99.8013,0.0186919,0.068073,20.9259,45.4638,0.048229,0.0,0.0
1011,252.5,25.9591,27.9218,158.327,100.32,99.6142,0.0186836,0.0679837,20.9261,45.4538,0.0647157,0.0,0.0
1014,253.25,26.5388,28.0801,153.04,100.345,99.8531,0.0186435,0.0679317,20.9266,45.4338,0.0449946,0.0,0.0
1017,254,26.0777,27.3925,154.043,100.331,100.205,0.0185997,0.0677767,20.9275,45.4138,0.0115189,0.0,0.0
1020,254.75,25.8926,28.3018,156.627,100.32,99.9966,0.0185522,0.0676138,20.9281,45.4038,0.0295805,0.0,0.0
1023,255.5,26.1745,27.8994,154.554,100.336,99.666,0.0185104,0.0674742,20.9286,45.3838,0.0613982,0.0,0.0
1026,256.25,26.1635,27.8853,158.422,100.33,100.297,0.0184804,0.0674028,20.9288,45.3637,0.00303309,0.0,0.0
1029,257,26.4134,28.2151,150.61,100.335,100.383,0.0184267,0.0672994,20.9291,45.3337,-0.00439911,0.0,0.0
1032,257.75,26.0601,27.9258,153.369,100.345,100.303,0.0183516,0.0671621,20.9293,45.3137,0.00384305,0.0,0.0
1035,258.5,26.2878,28.2955,153.491,100.346,100.305,0.0183041,0.0670984,20.9294,45.3037,0.00377865,0.0,0.0
1038,259.25,26.0982,28.0986,153.33,100.359,100.145,0.0182247,0.0670149,20.9295,45.2737,0.0194879,0.0,0.0
1041,260,26.6583,27.9286,155.969,100.351,100.436,0.0181464,0.0669331,20.9296,45.2536,-0.00769368,0.0,0.0
1044,260.75,25.8782,28.3026,155.349,100.344,99.7816,0.0180721,0.0668589,20.9296,45.2336,0.0515177,0.0,0.0
1047,261.5,26.2151,28.0549,152.724,100.357,100.181,0.0179985,0.0667986,20.9297,45.2136,0.01613,0.0,0.0
1050,262.25,26.0294,27.8829,156.635,100.353,99.8891,0.0179449,0.0666711,20.9297,45.1936,0.0423982,0.0,0.0
1053,263,25.8078,27.6483,157.231,100.349,100.537,0.0179077,0.066555,20.9297,45.1736,-0.0171447,0.0,0.0
1056,263.75,26.0515,27.8371,156.437,100.347,100.061,0.0178902,0.0664309,20.9297,45.1435,0.0261337,0.0,0.0
1059,264.5,26.037,28.1131,153.715,100.357,100.386,0.0178814,0.0663551,20.9298,45.1235,-0.00262173,0.0,0.0
1062,265.25,25.9389,28.1484,154.218,100.356,100.245,0.0178887,0.066306,20.9298,45.0935,0.0101478,0.0,0.0
1065,266,25.6519,28.2219,155.154,100.345,100.088,0.0178784,0.0662703,20.9298,45.1035,0.0234514,0.0,0.0
1068,266.75,25.8663,27.8717,157.365,100.337,99.9841,0.0178709,0.0661816,20.9298,45.0735,0.0322806,0.0,0.0
1069,267,25.8312,27.8924,151.977,100.352,99.8776,0.0178531,0.0661577,20.9298,45.0635,0.0434177,0.0,0.0