File: 01_Data/Cellulose_Insulation/Cone/Cellulose_Insulation_Cone_HF25Scan_230613_R1.csv
Names,Time,Stack TC,Smoke TC,Exh Press,Smoke Comp,Smoke Meas,CO Meter,CO2 Meter,O2 Meter,Sample Mass,Ext Coeff,Start Test,Flame Verif
Chan Gain,,500,500,1,1,1,1,1,1,1,1,1.0,1.0
Offset,,0,0,0.142142,0,0,0,0,0,0,0,0.0,0.0
Gain,,1,1,25.011,13.2995,16.1223,1,1,1,1.00097,1.04429,1.0,1.0
Units,sec,C,C,Pa,%,%,%,%,%,g,/m,,
Baseline,,24.4882,25.4655,158.665,98.9311,98.9891,0.000152643,0.0473032,20.9592,-444.919,-0.00536053,,
3,0.5,23.0665,23.7789,156.517,98.8115,98.8802,0.000326939,0.0592748,20.9419,52.3505,-0.00636314,0.0,0.0
6,1.25,22.7701,23.5436,156.863,98.7989,98.8423,0.000290368,0.0582699,20.9424,52.4205,-0.00401892,0.0,0.0
9,2,22.8851,23.6874,158.052,98.7965,98.7183,0.000259176,0.0573319,20.9434,52.4306,0.00725351,0.0,0.0
12,2.75,22.8027,24.1194,157.878,98.8095,98.4211,0.000241787,0.0565069,20.9444,52.4506,0.0360754,0.0,0.0
15,3.5,22.6792,23.4603,157.829,98.8285,97.8937,0.000239812,0.0558138,20.9452,52.4205,0.0870655,0.0,0.0
18,4.25,22.9024,24.0425,157.037,98.807,97.441,0.000241005,0.05535,20.9458,52.4005,0.127527,0.0,0.0
21,5,22.5101,23.2319,157.447,98.8091,96.9603,0.000246378,0.0551346,20.9469,52.2904,0.173017,0.0,0.0
24,5.75,22.8665,23.643,165.165,98.8233,95.4857,0.000250295,0.0551874,20.9477,52.3905,0.314715,0.0,0.0
27,6.5,22.8736,23.9727,155.67,98.8261,95.6314,0.000255126,0.0554446,20.9483,52.2604,0.301018,0.0,0.0
30,7.25,22.7859,23.7329,157.059,98.8196,94.7069,0.000262025,0.0557253,20.9487,52.2804,0.389403,0.0,0.0
33,8,22.9306,24.1742,155.417,98.8139,93.127,0.000267054,0.0558424,20.949,52.2904,0.542975,0.0,0.0
36,8.75,23.2008,24.2007,157.303,98.8371,92.4382,0.000293922,0.0558445,20.9499,52.2604,0.613127,0.0,0.0
39,9.5,22.8701,24.0757,165.777,98.8371,91.4812,0.000327278,0.0557673,20.9506,52.0402,0.708455,0.0,1.0
42,10.25,23.4192,24.3049,145.711,98.8342,98.5879,0.000364713,0.0555447,20.9508,51.9901,0.0228588,0.0,1.0
45,11,23.971,24.911,150.97,98.8302,99.2752,0.000404401,0.0553387,20.9508,51.9201,-0.0411616,0.0,1.0
48,11.75,24.078,25.7673,146.074,98.8436,99.416,0.000442138,0.0551699,20.9509,51.88,-0.0528947,0.0,1.0
51,12.5,24.8741,26.2191,147.228,98.8456,99.2777,0.000473401,0.0551648,20.9509,51.7199,-0.0399583,0.0,1.0
54,13.25,25.3472,27.5734,148.602,98.8533,99.1188,0.000490831,0.0552113,20.9511,51.6698,-0.0245681,0.0,1.0
57,14,24.8704,26.3277,152.952,98.8375,98.9874,0.000502219,0.0555987,20.9513,51.6198,-0.0138866,0.0,1.0
60,14.75,24.4384,27.0774,145.91,98.8468,99.1847,0.000508267,0.0559655,20.9515,51.5397,-0.0312617,0.0,0.0
63,15.5,25.1827,27.2518,150.702,98.8557,99.2132,0.000511423,0.0563773,20.9516,51.4997,-0.0330688,0.0,0.0
66,16.25,25.3197,27.4462,145.188,98.8513,99.0848,0.000519783,0.0578852,20.9517,51.4396,-0.0216188,0.0,0.0
69,17,25.6264,28.2338,146.174,98.8492,99.1109,0.000537152,0.0638154,20.9511,51.3495,-0.0242166,0.0,0.0
72,17.75,26.0923,28.2293,146.638,98.8513,99.505,0.000592723,0.0751482,20.9502,51.2494,-0.0603817,0.0,0.0
75,18.5,26.4647,29.0127,146.976,98.8663,99.5124,0.000673382,0.0918744,20.9489,51.2694,-0.0596706,0.0,0.0
78,19.25,26.459,29.0917,149.083,98.8578,99.3205,0.000749299,0.11668,20.9472,51.1794,-0.0427791,0.0,0.0
81,20,26.4271,29.093,147.607,98.8618,99.3077,0.000869977,0.14014,20.9428,51.1293,-0.041223,0.0,0.0
84,20.75,27.0299,29.977,149.057,98.8602,99.4661,0.00100766,0.170397,20.9382,51.0893,-0.055976,0.0,0.0
87,21.5,27.127,29.9469,150.426,98.8728,99.1842,0.0011454,0.195048,20.9177,51.0192,-0.0288092,0.0,0.0
90,22.25,27.1986,30.3099,150.562,98.8813,99.4042,0.0012647,0.214124,20.8951,50.9591,-0.0483092,0.0,0.0
93,23,27.5251,29.8482,150.179,98.8809,99.2521,0.00136038,0.228275,20.8658,50.9191,-0.0343259,0.0,0.0
96,23.75,27.1466,30.2307,151.32,98.8744,99.3023,0.00143127,0.23767,20.8253,50.8791,-0.039558,0.0,0.0
99,24.5,27.6455,30.3443,153.494,98.8955,99.4037,0.00148654,0.244083,20.7944,50.819,-0.0469486,0.0,0.0
102,25.25,27.7378,30.8324,152.543,98.8996,99.3997,0.00153745,0.246379,20.7713,50.779,-0.0462099,0.0,0.0
105,26,27.8414,30.7756,155.156,98.8914,99.2349,0.0015927,0.246841,20.7545,50.7489,-0.0317592,0.0,0.0
108,26.75,27.4701,30.6184,151.124,98.8797,99.2388,0.00164957,0.245109,20.7422,50.6989,-0.0332129,0.0,0.0
111,27.5,27.7872,31.1884,153.618,98.8971,99.2403,0.0017194,0.241657,20.7332,50.6488,-0.0317318,0.0,0.0
114,28.25,28.0279,31.04,152.362,98.9028,99.2536,0.0017919,0.238209,20.7281,50.5988,-0.0324315,0.0,0.0
117,29,28.2212,30.9309,153.332,98.9077,99.2816,0.00185106,0.233498,20.7263,50.5487,-0.0345687,0.0,0.0
120,29.75,28.317,31.206,147.105,98.8996,99.3082,0.00188119,0.229747,20.7271,50.5087,-0.0377722,0.0,0.0
123,30.5,27.8202,31.1094,151.429,98.9097,99.1818,0.00191345,0.225414,20.7294,50.4587,-0.025161,0.0,0.0
126,31.25,27.7167,31.2295,151.738,98.9219,99.0376,0.00191771,0.220572,20.7335,50.3686,-0.010709,0.0,0.0
129,32,28.2953,31.0139,152.615,98.9105,99.1823,0.00188789,0.215838,20.7401,50.3485,-0.0251309,0.0,0.0
132,32.75,28.1341,31.7512,148.692,98.9199,99.1203,0.00183839,0.211555,20.7453,50.2585,-0.0185392,0.0,0.0
135,33.5,28.6687,31.9239,155.279,98.93,99.0081,0.00179046,0.20712,20.75,50.2785,-0.00722592,0.0,0.0
138,34.25,28.3981,31.8423,149.589,98.9393,99.0445,0.00175602,0.20446,20.7532,50.2384,-0.00972948,0.0,0.0
141,35,28.5808,32.1256,152.444,98.9418,99.3535,0.00170678,0.200299,20.7581,50.1684,-0.0380375,0.0,0.0
144,35.75,28.7184,31.519,154.347,98.9337,99.1045,0.00167656,0.196287,20.7635,50.1584,-0.0158057,0.0,0.0
147,36.5,28.8861,32.0876,154.99,98.9446,99.1901,0.00168224,0.192483,20.7679,50.1083,-0.0227009,0.0,0.0
150,37.25,28.695,31.5574,155.971,98.9523,99.3756,0.00171545,0.188872,20.772,50.0683,-0.0391018,0.0,0.0
153,38,28.7009,32.0583,153.722,98.9495,99.4115,0.00176917,0.18593,20.7781,50.0282,-0.0426749,0.0,0.0
156,38.75,28.7876,31.8793,153.367,98.9519,99.3604,0.0018323,0.183258,20.7831,49.9582,-0.0377332,0.0,0.0
159,39.5,29.1568,31.9849,151.696,98.9625,99.2113,0.00190051,0.180562,20.7875,49.8581,-0.0230014,0.0,0.0
162,40.25,29.3502,31.4384,151.371,98.9694,99.2477,0.00197069,0.178329,20.792,49.8881,-0.0257239,0.0,0.0
165,41,29.0346,31.8809,152.442,98.9852,99.4883,0.0020265,0.176244,20.7952,49.9081,-0.0464388,0.0,0.0
168,41.75,28.9402,31.8655,153.96,98.9767,99.2113,0.00207515,0.174478,20.7983,49.8581,-0.0216867,0.0,0.0
171,42.5,28.9454,32.2159,155.06,98.9905,99.2551,0.00210701,0.173029,20.8009,49.8481,-0.024452,0.0,0.0
174,43.25,29.0564,32.022,152.724,98.9954,99.3776,0.00212428,0.171876,20.8035,49.748,-0.0353015,0.0,0.0
177,44,29.3949,31.9719,152.242,98.9978,99.4017,0.00212268,0.170914,20.8062,49.748,-0.0372979,0.0,0.0
180,44.75,29.1945,32.2819,148.641,98.9958,99.2964,0.0021147,0.170162,20.8084,49.7179,-0.0277774,0.0,0.0
183,45.5,29.2171,32.1823,151.876,99.0075,99.1424,0.00210888,0.169613,20.8105,49.6579,-0.0124705,0.0,0.0
186,46.25,29.3232,32.2894,156.981,99.0234,99.446,0.00210995,0.169235,20.8122,49.5978,-0.0390119,0.0,0.0
189,47,29.6051,32.3023,153.747,99.0315,99.201,0.00211983,0.168919,20.8134,49.5978,-0.0156629,0.0,0.0
192,47.75,29.2921,31.6235,151.027,99.0274,99.2049,0.00213833,0.168619,20.8143,49.5678,-0.0164019,0.0,0.0
195,48.5,29.1845,32.1453,151.516,99.0299,99.3328,0.00217115,0.168232,20.815,49.5077,-0.0279811,0.0,0.0
198,49.25,29.2386,31.9488,152.932,99.0416,99.3451,0.00222392,0.167773,20.8154,49.4477,-0.0280271,0.0,0.0
201,50,29.2393,32.1503,155.789,99.0493,99.1773,0.00228769,0.167258,20.8158,49.4477,-0.0118302,0.0,0.0
204,50.75,29.1987,32.238,153.97,99.0688,99.3077,0.00235895,0.166686,20.816,49.4177,-0.0220632,0.0,0.0
207,51.5,29.2344,32.1409,154.331,99.0514,99.292,0.00243481,0.166221,20.8169,49.3376,-0.0222252,0.0,0.0
210,52.25,29.159,32.4789,155.142,99.0761,99.5198,0.00251165,0.165799,20.8175,49.2975,-0.0409279,0.0,0.0
213,53,28.9657,31.7732,155.383,99.0818,99.6172,0.00258685,0.165448,20.8179,49.2875,-0.0493653,0.0,0.0
216,53.75,29.2761,32.3197,151.162,99.0944,99.5321,0.00265877,0.165191,20.8182,49.1574,-0.0403718,0.0,0.0
219,54.5,29.5485,32.718,153.856,99.1005,99.4332,0.00271121,0.165061,20.8184,49.2375,-0.0307029,0.0,0.0
222,55.25,29.3759,32.256,154.375,99.109,99.5011,0.00276718,0.165063,20.8188,49.2275,-0.0361676,0.0,0.0
225,56,29.9442,32.5653,153.298,99.122,99.4588,0.0028249,0.165195,20.8193,49.1574,-0.0310705,0.0,0.0
228,56.75,29.0282,32.4301,154.55,99.1321,99.4755,0.00288295,0.165243,20.8197,49.1174,-0.0316737,0.0,0.0
231,57.5,29.5067,31.8542,154.296,99.1382,99.6679,0.00296335,0.165196,20.82,49.0673,-0.0488092,0.0,0.0
234,58.25,29.7068,32.1172,151.934,99.1439,99.691,0.00305157,0.164877,20.8202,49.0573,-0.05041,0.0,0.0
237,59,29.5206,32.4731,149.887,99.1605,99.6654,0.00313875,0.164491,20.8197,49.0173,-0.0465211,0.0,0.0
240,59.75,29.6965,32.2955,153.634,99.1703,99.7299,0.00322587,0.163947,20.8194,48.9772,-0.0515438,0.0,0.0
243,60.5,29.6369,31.7712,154.767,99.176,99.5941,0.00329942,0.163268,20.8191,48.9772,-0.038537,0.0,0.0
246,61.25,29.818,32.3036,154.174,99.1788,99.4942,0.00337021,0.162667,20.8189,48.9572,-0.0290842,0.0,0.0
249,62,29.8638,32.2468,152.628,99.2141,99.6556,0.00343855,0.162051,20.8188,48.9072,-0.0406685,0.0,0.0
252,62.75,29.5936,32.4071,153.579,99.2145,99.5449,0.00351701,0.161188,20.8193,48.8671,-0.0304498,0.0,0.0
255,63.5,29.3892,32.1427,155.419,99.2348,99.5955,0.00361235,0.160207,20.8203,48.8571,-0.0332381,0.0,0.0
258,64.25,29.6791,32.4743,148.717,99.2474,99.5557,0.00369795,0.159189,20.8211,48.8171,-0.028411,0.0,0.0
261,65,29.7703,32.3117,153.497,99.2689,99.4661,0.00378788,0.157974,20.8223,48.777,-0.018183,0.0,0.0
264,65.75,28.9703,32.081,152.381,99.2872,99.5636,0.00390984,0.156887,20.8236,48.727,-0.0254654,0.0,0.0
267,66.5,29.67,31.9192,151.04,99.2998,99.8051,0.00402362,0.155464,20.8247,48.717,-0.0465035,0.0,0.0
270,67.25,29.4146,32.0505,154.738,99.3022,99.6566,0.00414909,0.154016,20.8262,48.697,-0.0326309,0.0,0.0
273,68,29.2891,31.8679,151.391,99.3241,99.5837,0.00429554,0.152785,20.8277,48.6769,-0.0239144,0.0,0.0
276,68.75,29.3293,31.111,156.327,99.333,99.7407,0.00442575,0.151523,20.8293,48.6469,-0.0375167,0.0,0.0
279,69.5,29.5353,32.1963,151.81,99.3529,99.7038,0.0045642,0.150447,20.8308,48.6069,-0.0322934,0.0,0.0
282,70.25,29.4421,31.7957,157.405,99.3623,99.5818,0.00468369,0.149273,20.8324,48.5768,-0.0202151,0.0,0.0
285,71,29.324,32.0432,154.192,99.3757,99.8829,0.00479456,0.148084,20.8339,48.5568,-0.0466369,0.0,0.0
288,71.75,29.2039,31.4794,152.195,99.4057,100.058,0.00490359,0.146827,20.8355,48.5268,-0.059919,0.0,0.0
291,72.5,29.426,32.0754,152.53,99.4248,99.7309,0.00498463,0.145888,20.8363,48.4868,-0.0281575,0.0,0.0
294,73.25,29.741,31.7076,155.736,99.4394,99.723,0.00509993,0.144273,20.8376,48.4467,-0.026088,0.0,0.0
297,74,29.3403,31.8737,155.36,99.4463,99.8396,0.00521695,0.142417,20.8388,48.4567,-0.0361582,0.0,0.0
300,74.75,28.9792,31.942,155.935,99.4852,99.9621,0.00531896,0.14087,20.8403,48.3967,-0.0438034,0.0,0.0
303,75.5,29.1072,32.1692,149.377,99.5015,99.9065,0.00540044,0.13932,20.8419,48.3666,-0.0372124,0.0,0.0
306,76.25,29.3925,31.8171,153.867,99.5088,99.8681,0.00548041,0.138009,20.8438,48.3366,-0.0330205,0.0,0.0
309,77,29.5842,31.9481,154.075,99.5396,99.966,0.00554747,0.137054,20.8455,48.3166,-0.0391577,0.0,0.0
312,77.75,29.2749,31.7541,156.069,99.5624,100.026,0.00559636,0.136078,20.8471,48.2866,-0.0425652,0.0,0.0
315,78.5,29.0943,31.9256,151.355,99.5847,99.9724,0.00571275,0.135366,20.8492,48.2665,-0.035598,0.0,0.0
318,79.25,29.4201,32.0077,153.275,99.596,99.9911,0.00581474,0.135003,20.8506,48.2365,-0.0362668,0.0,0.0
321,80,29.0526,31.89,154.808,99.6151,100.168,0.00595702,0.134552,20.8524,48.2065,-0.0507241,0.0,0.0
324,80.75,29.3681,31.6056,158.418,99.6419,99.7983,0.00610252,0.134179,20.8538,48.1865,-0.0143624,0.0,0.0
327,81.5,29.4512,31.7625,155.699,99.6561,100.126,0.006262,0.133853,20.8548,48.1564,-0.0430852,0.0,0.0
330,82.25,29.5708,31.4895,155.265,99.6691,99.9547,0.00639458,0.133508,20.8555,48.1364,-0.0262134,0.0,0.0
333,83,29.3085,31.6942,152.332,99.6687,100.097,0.00651914,0.133105,20.856,48.0964,-0.0393178,0.0,0.0
336,83.75,29.4425,31.9425,155.624,99.7316,100.091,0.00664875,0.132748,20.8564,48.0563,-0.032952,0.0,0.0
339,84.5,29.1265,31.7797,149.627,99.7227,100.018,0.00675978,0.131971,20.8567,48.0163,-0.0270605,0.0,0.0
342,85.25,29.178,30.8482,157.481,99.7357,99.7737,0.00688688,0.131207,20.8569,47.9863,-0.00348962,0.0,0.0
345,86,29.1836,31.2359,159.217,99.7385,100.09,0.00699896,0.130312,20.8573,47.9763,-0.0322282,0.0,0.0
348,86.75,29.625,31.5104,155.983,99.7734,100.126,0.00709919,0.129294,20.858,47.9462,-0.0323542,0.0,0.0
351,87.5,29.3709,31.7036,158.002,99.7852,99.9331,0.00718975,0.128308,20.8589,47.9162,-0.0135662,0.0,0.0
354,88.25,29.4045,31.6874,158.483,99.8136,99.8214,0.00729338,0.127169,20.86,47.9162,-0.000715838,0.0,0.0
357,89,29.2304,31.7626,155.153,99.7933,100.004,0.00738496,0.125739,20.8612,47.8561,-0.0193139,0.0,0.0
360,89.75,29.1395,31.5179,160.503,99.8047,100.31,0.00754434,0.124441,20.8626,47.8261,-0.0462604,0.0,0.0
363,90.5,29.0462,31.227,155.987,99.8363,99.97,0.00771258,0.122832,20.8637,47.7961,-0.012255,0.0,0.0
366,91.25,29.0127,31.0408,151.339,99.8343,100.099,0.00792424,0.121447,20.8646,47.8061,-0.02429,0.0,0.0
369,92,29.076,31.1978,154.459,99.8452,100.097,0.0081641,0.120073,20.8657,47.7661,-0.0231054,0.0,0.0
372,92.75,28.8851,31.1206,157.978,99.8663,100.127,0.00838596,0.118581,20.8666,47.716,-0.023915,0.0,0.0
375,93.5,28.8573,31.2936,155.455,99.8643,100.114,0.00858218,0.117269,20.8673,47.676,-0.0228415,0.0,0.0
378,94.25,28.601,30.905,159.727,99.8724,100.049,0.00874992,0.1161,20.8691,47.676,-0.0161519,0.0,0.0
381,95,28.5563,31.3633,153.199,99.8862,100.049,0.00889646,0.115045,20.8707,47.5659,-0.0149317,0.0,0.0
384,95.75,29.1467,30.6507,155.19,99.896,100.104,0.00901013,0.113721,20.8722,47.5358,-0.019037,0.0,0.0
387,96.5,28.6858,30.9895,153.022,99.9167,100.174,0.00910471,0.112505,20.8739,47.5959,-0.0235296,0.0,0.0
390,97.25,28.3139,31.0324,153.625,99.9134,100.001,0.00920245,0.111189,20.8754,47.5759,-0.00802266,0.0,0.0
393,98,28.8124,31.0104,153.796,99.9191,100.161,0.00930873,0.110051,20.8767,47.5659,-0.0221371,0.0,0.0
396,98.75,28.8678,30.913,153.815,99.9353,100.134,0.00942511,0.109146,20.8782,47.4958,-0.0181737,0.0,0.0
399,99.5,28.2718,30.5145,153.365,99.937,100.312,0.00953757,0.1084,20.8794,47.4658,-0.0343484,0.0,0.0
402,100.25,28.9781,31.0489,156.003,99.95,100.131,0.00966677,0.107857,20.8802,47.4458,-0.0165643,0.0,0.0
405,101,28.726,30.3968,154.086,99.9524,99.9828,0.00978653,0.107312,20.8809,47.3957,-0.0027834,0.0,0.0
408,101.75,28.5244,30.8557,152.948,99.9435,100.156,0.00991756,0.106737,20.8817,47.3757,-0.0194551,0.0,0.0
411,102.5,28.8171,31.5689,154.486,99.9629,100.11,0.0100525,0.106186,20.8828,47.3857,-0.0134388,0.0,0.0
414,103.25,28.7299,31.1212,149.532,99.9593,100.259,0.0101797,0.105691,20.8838,47.3557,-0.0274493,0.0,0.0
417,104,28.3935,30.7704,155.234,99.9666,100.431,0.0102849,0.105241,20.8845,47.3457,-0.0424555,0.0,0.0
420,104.75,28.982,30.6947,153.693,99.9552,100.185,0.0103825,0.104875,20.8852,47.3156,-0.0210754,0.0,0.0
423,105.5,28.6294,30.2204,162.226,99.9808,99.9823,0.0104627,0.104459,20.8862,47.3056,-0.000134318,0.0,0.0
426,106.25,28.7953,30.8602,154.579,99.9788,99.9956,0.0105363,0.104062,20.8869,47.3256,-0.00153713,0.0,0.0
429,107,28.696,30.6811,157.794,99.9816,100.266,0.0105887,0.103721,20.8877,47.2856,-0.0259878,0.0,0.0
432,107.75,28.8488,30.5799,150.765,99.978,100.042,0.0106186,0.103599,20.8889,47.2255,-0.00584683,0.0,0.0
435,108.5,28.5055,30.8233,154.505,99.9869,100.149,0.0106274,0.103585,20.8897,47.1455,-0.0148453,0.0,0.0
438,109.25,28.5615,30.855,152.809,99.98,100.301,0.0106001,0.103606,20.8903,47.1555,-0.0293279,0.0,0.0
441,110,28.5667,30.4992,155.102,99.9897,100.21,0.0105794,0.103537,20.8908,47.1555,-0.0201642,0.0,0.0
444,110.75,28.4818,30.937,151.846,99.9914,100.136,0.0105632,0.103423,20.8911,47.1355,-0.013266,0.0,0.0
447,111.5,28.4009,30.5648,152.536,99.9873,100.286,0.0105777,0.103234,20.8913,47.1154,-0.0273551,0.0,0.0
450,112.25,28.3534,30.7938,152.421,99.9958,100.271,0.0106333,0.102932,20.8909,47.0654,-0.0251813,0.0,0.0
453,113,28.3369,30.6204,159.233,100.001,100.238,0.0107302,0.10251,20.8905,47.0554,-0.0217228,0.0,0.0
456,113.75,28.168,30.3292,156.099,99.9751,100.233,0.0108286,0.101975,20.8903,47.0354,-0.0236166,0.0,0.0
459,114.5,28.0832,30.7251,152.758,99.978,100.255,0.0109121,0.101362,20.8901,46.9953,-0.0253335,0.0,0.0
462,115.25,28.299,30.5387,154.6,99.9885,100.319,0.0110125,0.100789,20.8904,46.9653,-0.0302099,0.0,0.0
465,116,28.5573,30.3719,149.851,99.9889,100.433,0.0111319,0.100318,20.8911,46.9753,-0.0406345,0.0,0.0
468,116.75,28.227,30.5167,154.134,99.9759,100.245,0.0112721,0.099945,20.8919,46.9553,-0.0245758,0.0,0.0
471,117.5,28.5254,30.5955,153.989,99.9824,100.172,0.0114315,0.0996604,20.8926,46.9253,-0.0173241,0.0,0.0
474,118.25,28.3198,30.5125,152.348,100.001,100.205,0.0115985,0.0992836,20.8931,46.9052,-0.0186732,0.0,0.0
477,119,28.6081,29.8862,153.1,99.9759,100.598,0.0118074,0.0989153,20.8934,46.8652,-0.0568457,0.0,0.0
480,119.75,28.0413,30.5626,156.149,99.9812,100.22,0.0120544,0.0984867,20.8937,46.8452,-0.0218892,0.0,0.0
483,120.5,28.5893,30.4221,154.731,99.9686,100.291,0.0122345,0.0981594,20.8938,46.8252,-0.0294709,0.0,0.0
486,121.25,28.8612,30.4776,155.664,99.9776,100.268,0.0124511,0.0978988,20.894,46.7851,-0.0265841,0.0,0.0
489,122,28.4146,30.3791,151.499,99.9836,100.241,0.0126277,0.0976822,20.8943,46.7551,-0.0235099,0.0,0.0
492,122.75,28.3605,30.4565,152.711,99.9788,100.356,0.0127616,0.0977146,20.8949,46.7251,-0.0345161,0.0,0.0
495,123.5,28.604,30.0015,155.437,99.9589,100.078,0.0128544,0.0977383,20.8954,46.705,-0.0109288,0.0,0.0
498,124.25,28.512,30.721,156.84,99.967,100.175,0.0129038,0.0981998,20.8958,46.5649,-0.0190529,0.0,0.0
501,125,28.6143,30.5377,155.191,99.9662,100.275,0.0129087,0.0985753,20.896,46.675,-0.0282555,0.0,0.0
504,125.75,28.0577,30.4082,155.065,99.9678,100.174,0.0128803,0.0989159,20.8959,46.625,-0.0188877,0.0,0.0
507,126.5,28.7876,30.6397,153.083,99.9605,100.154,0.0128461,0.0990603,20.8954,46.615,-0.0177574,0.0,0.0
510,127.25,28.2613,30.01,151.704,99.9548,100.344,0.0127849,0.0991212,20.895,46.615,-0.0356326,0.0,0.0
513,128,28.4133,30.3733,155.355,99.9694,100.009,0.0127306,0.0990365,20.8948,46.5949,-0.00365403,0.0,0.0
516,128.75,28.5009,30.3324,158.187,99.9581,99.7481,0.0126742,0.0989303,20.8944,46.5649,0.0192656,0.0,0.0
519,129.5,28.3059,30.1769,155.941,99.9552,100.022,0.0126199,0.0988339,20.8941,46.5349,-0.00612766,0.0,0.0
522,130.25,28.1415,30.4222,153.373,99.9508,100.165,0.012574,0.0986578,20.8939,46.5249,-0.0195957,0.0,0.0
525,131,28.603,29.9612,153.285,99.9638,100.339,0.0125298,0.0984592,20.8943,46.5249,-0.0343643,0.0,0.0
528,131.75,28.7676,30.4929,154.341,99.9552,100.164,0.0124805,0.0981943,20.8947,46.4948,-0.019141,0.0,0.0
531,132.5,28.3991,29.6819,154.165,99.9658,100.165,0.0124446,0.0978744,20.8949,46.4848,-0.018264,0.0,0.0
534,133.25,28.3014,30.4264,157.059,99.9492,99.8243,0.0123938,0.0976021,20.8951,46.4648,0.0114469,0.0,0.0
537,134,27.9571,29.9935,152.667,99.9666,99.7486,0.0123502,0.097337,20.8952,46.4448,0.0200012,0.0,0.0
540,134.75,27.9576,30.124,153.37,99.9593,99.7702,0.0123155,0.0969362,20.8953,46.4248,0.0173443,0.0,0.0
543,135.5,28.0796,30.078,154.252,99.9565,99.6979,0.0123186,0.0963608,20.8954,46.3947,0.0237269,0.0,0.0
546,136.25,28.0399,29.9568,152.999,99.954,99.7427,0.0123687,0.0956082,20.8955,46.3847,0.019391,0.0,0.0
549,137,27.9908,30.083,153.584,99.9569,99.9424,0.0124753,0.0944265,20.8955,46.3547,0.00132342,0.0,0.0
552,137.75,28.1511,30.0631,154.64,99.9585,99.8598,0.0126379,0.0934172,20.8962,46.3347,0.00905153,0.0,0.0
555,138.5,27.9701,30.3766,152.547,99.9496,100.115,0.0128552,0.0924288,20.8971,46.3046,-0.015116,0.0,0.0
558,139.25,27.9117,29.9088,152.348,99.9504,99.9956,0.0130556,0.0915604,20.898,46.2746,-0.00414073,0.0,0.0
561,140,28.3117,29.7126,157.784,99.9455,99.5709,0.0133713,0.0908644,20.8986,46.2146,0.0343936,0.0,0.0
564,140.75,28.0653,29.9126,153.34,99.9589,99.6162,0.0136424,0.0898095,20.8991,46.2046,0.0314568,0.0,0.0
567,141.5,27.9214,29.9488,158.526,99.9471,99.7835,0.0139099,0.088792,20.9001,46.1845,0.0150093,0.0,0.0
570,142.25,28.1391,29.64,160.118,99.9374,99.8017,0.0141828,0.0876255,20.901,46.1345,0.0124448,0.0,0.0
573,143,27.7187,29.7312,155.727,99.9524,99.7392,0.0143456,0.086705,20.9018,46.1245,0.0195588,0.0,0.0
576,143.75,27.5642,29.6119,154.415,99.9475,99.8027,0.0146448,0.0855563,20.9027,46.0944,0.0132844,0.0,0.0
579,144.5,28.0856,29.7378,152.406,99.9536,99.7063,0.0149494,0.0845498,20.9042,46.0944,0.0226976,0.0,0.0
582,145.25,27.7549,29.6133,157.945,99.9451,99.7082,0.0151958,0.0837763,20.9057,46.0744,0.0217368,0.0,0.0
585,146,27.5953,29.5068,155.808,99.9459,99.6133,0.0153857,0.0832125,20.9068,46.0444,0.0305383,0.0,0.0
588,146.75,27.6278,29.3775,157.742,99.9544,99.8263,0.015503,0.0828014,20.9076,46.0344,0.011749,0.0,0.0
591,147.5,27.3189,29.411,154.731,99.9516,99.8539,0.0155885,0.0824243,20.9082,45.9944,0.00896098,0.0,0.0
594,148.25,27.5724,29.6775,155.713,99.9439,99.5577,0.015636,0.0820168,20.9088,45.9243,0.0354662,0.0,0.0
597,149,27.7164,29.4372,155.244,99.9366,99.6989,0.0156643,0.0816034,20.9094,45.9243,0.0218141,0.0,0.0
600,149.75,27.5668,29.5737,160.438,99.9487,99.4622,0.0157005,0.0811596,20.9106,45.9443,0.044699,0.0,0.0
603,150.5,27.5818,29.1485,154.8,99.9378,99.4661,0.0157525,0.0806771,20.9116,45.9243,0.043333,0.0,0.0
606,151.25,27.3772,29.3073,158.149,99.9439,99.5542,0.0158013,0.0800946,20.9124,45.9343,0.0357838,0.0,0.0
609,152,27.6974,29.8068,156.823,99.9467,99.7249,0.0159004,0.0795693,20.913,45.9043,0.0203477,0.0,0.0
612,152.75,27.5205,29.346,155.587,99.9646,99.937,0.0160105,0.0790144,20.9134,45.9043,0.00252655,0.0,0.0
615,153.5,27.6031,29.2848,152.066,99.9609,99.7166,0.0161069,0.0785247,20.9137,45.8442,0.0224176,0.0,0.0
618,154.25,27.6737,29.0498,152.337,99.9471,99.7377,0.0162285,0.0780223,20.9144,45.8342,0.0192101,0.0,0.0
621,155,27.532,29.5708,158.906,99.941,99.8553,0.0163526,0.077614,20.915,45.8142,0.00785907,0.0,0.0
624,155.75,27.7086,28.4975,154.031,99.9573,99.7274,0.0164663,0.0773242,20.9162,45.8042,0.0210896,0.0,0.0
627,156.5,27.6529,28.967,157.029,99.9581,99.4396,0.0165684,0.0771261,20.917,45.7842,0.0476402,0.0,0.0
630,157.25,27.8719,28.8771,155.551,99.9556,99.4012,0.0166386,0.0769398,20.9176,45.7842,0.050953,0.0,0.0
633,158,27.3875,29.1377,154.519,99.9512,99.2831,0.0166711,0.0767746,20.918,45.5639,0.0614329,0.0,0.0
636,158.75,26.8034,29.193,158.013,99.9694,99.2231,0.0166753,0.0766416,20.9184,45.654,0.0686466,0.0,0.0
639,159.5,27.3811,28.8377,157.238,99.9662,99.1645,0.0166607,0.0765447,20.9186,45.644,0.0737555,0.0,0.0
642,160.25,27.2327,29.0574,160.513,99.9569,99.3249,0.0166426,0.0765034,20.9188,45.644,0.0580957,0.0,0.0
645,161,26.8448,28.5715,156.756,99.9573,99.198,0.0166308,0.0764858,20.9189,45.614,0.0698474,0.0,0.0
648,161.75,27.1998,28.923,155.326,99.9763,99.4612,0.0166251,0.0765209,20.9189,45.594,0.0473198,0.0,0.0
651,162.5,27.0381,28.9537,155.689,99.9617,99.4903,0.0166205,0.076577,20.919,45.5739,0.043308,0.0,0.0
654,163.25,26.4358,29.0138,161.85,99.9642,99.3033,0.0166131,0.0766443,20.9191,45.5739,0.0607614,0.0,0.0
657,164,26.7036,28.7529,156.756,99.9629,99.3033,0.0166145,0.0764837,20.9191,45.5739,0.0606497,0.0,0.0
660,164.75,27.4449,28.8364,156.092,99.9638,99.3732,0.0166301,0.0761024,20.9191,45.5639,0.0542819,0.0,0.0
663,165.5,26.5358,28.903,156.858,99.9804,99.4898,0.0167053,0.0757116,20.9192,45.5439,0.0450642,0.0,0.0
666,166.25,27.2548,28.7039,156.353,99.9776,99.4789,0.0168238,0.0749243,20.9192,45.5239,0.0458009,0.0,0.0
669,167,26.9336,28.4332,151.787,99.9678,99.7092,0.0169374,0.074013,20.9192,45.4839,0.0237291,0.0,0.0
672,167.75,27.1685,28.7207,155.652,99.9686,99.6733,0.0171221,0.0732049,20.9194,45.4338,0.0271028,0.0,0.0
675,168.5,26.9996,28.543,153.528,99.9715,99.3451,0.0173302,0.0723231,20.92,45.4238,0.0575749,0.0,0.0
678,169.25,26.3584,28.673,154.536,99.9703,99.1818,0.0175334,0.0716185,20.9209,45.3938,0.0725368,0.0,0.0
681,170,26.9822,28.0486,159.077,99.9581,99.3953,0.0177156,0.0709994,20.9217,45.3738,0.0517207,0.0,0.0
684,170.75,26.7531,28.3634,155.954,99.9646,99.3328,0.017863,0.0704863,20.9223,45.3637,0.0580762,0.0,0.0
687,171.5,26.7648,28.4068,154.923,99.9812,99.2782,0.0179868,0.0700068,20.9226,45.3637,0.0646387,0.0,0.0
690,172.25,26.6118,28.5327,154.473,99.9788,99.072,0.018084,0.0696427,20.9224,45.3337,0.0834574,0.0,0.0
693,173,26.5069,28.5172,155.618,99.9796,99.0775,0.0181801,0.0693709,20.9228,45.3137,0.083031,0.0,0.0
696,173.75,26.9868,28.459,157.23,99.9589,99.1139,0.0182617,0.0690683,20.9234,45.3037,0.0777692,0.0,0.0
699,174.5,26.874,28.4993,154.981,99.9617,99.4352,0.0183409,0.0688092,20.9243,45.2636,0.0483833,0.0,0.0
702,175.25,26.2135,28.1215,154.272,99.9605,99.2457,0.0184026,0.0685545,20.9248,45.2536,0.0657382,0.0,0.0
705,176,26.5542,28.3177,156.852,99.9792,99.4288,0.0184329,0.0683394,20.9247,45.2236,0.0505707,0.0,0.0
708,176.75,26.5279,28.0887,152.436,99.9487,99.4194,0.0184267,0.0681625,20.9246,45.2036,0.0486429,0.0,0.0
711,177.5,26.6132,27.9965,156.34,99.9703,99.535,0.0183731,0.0680203,20.9245,45.1836,0.0399675,0.0,0.0
714,178.25,25.94,28.2617,156.416,99.9609,99.1217,0.0182852,0.0678749,20.9245,45.1535,0.0772267,0.0,0.0
717,179,26.3971,27.9897,157.344,99.952,99.7397,0.0181733,0.0677543,20.9245,45.1535,0.019476,0.0,0.0
720,179.75,26.4507,27.9175,156.366,99.937,99.413,0.0180645,0.0676601,20.9245,45.1135,0.0481541,0.0,0.0
723,180.5,26.6013,28.1345,156.09,99.941,99.1921,0.0179736,0.0675288,20.9244,45.1035,0.0689046,0.0,0.0
726,181.25,26.7874,28.2114,157.856,99.9492,99.413,0.0179073,0.0674176,20.9244,45.0635,0.0492696,0.0,0.0
729,182,26.1615,27.9241,157.144,99.926,99.5237,0.0178733,0.0673103,20.9244,45.0334,0.0369542,0.0,0.0
732,182.75,26.7062,28.5844,155.418,99.9309,99.5291,0.017873,0.0672613,20.9251,45.0234,0.0369031,0.0,0.0
735,183.5,26.4598,28.0341,153.566,99.941,99.6969,0.0179175,0.067238,20.9255,44.9934,0.0224046,0.0,0.0
738,184.25,26.2869,28.3687,155.467,99.9349,99.5734,0.0179606,0.0672211,20.9259,44.9834,0.0332001,0.0,0.0
741,185,26.3871,27.6829,155.167,99.9329,99.2698,0.0180105,0.0671941,20.9261,44.9333,0.0609849,0.0,0.0
744,185.75,26.7144,28.2234,159.093,99.9082,99.4519,0.0180468,0.0671605,20.9263,44.9433,0.0419308,0.0,0.0
747,186.5,26.741,27.8062,155.795,99.9114,99.3687,0.0180556,0.0671228,20.9264,44.9233,0.0498909,0.0,0.0
750,187.25,26.2047,27.9899,155.157,99.9167,99.1832,0.0180452,0.0670953,20.9265,44.9333,0.0674901,0.0,0.0
753,188,26.0836,28.1825,154.329,99.8887,99.0243,0.0180216,0.0670907,20.9266,44.9233,0.0796119,0.0,0.0
756,188.75,26.6172,28.0098,154.293,99.881,99.3751,0.0179951,0.0671137,20.9266,44.8633,0.0465093,0.0,0.0
759,189.5,27.3222,28.0948,156.759,99.8753,99.1567,0.0179599,0.0671459,20.9267,44.8232,0.066148,0.0,0.0
762,190.25,26.4291,27.9613,158.688,99.8972,99.2556,0.0179342,0.0671957,20.9267,44.8232,0.0590267,0.0,0.0
765,191,26.5428,28.2141,157.283,99.8647,99.6856,0.0179126,0.0671902,20.9267,44.8032,0.0164472,0.0,0.0
768,191.75,26.4729,28.1791,156.446,99.855,99.3466,0.017892,0.0672155,20.9267,44.8332,0.0467581,0.0,0.0
771,192.5,26.7605,27.956,156.607,99.8428,99.1557,0.0178342,0.0672541,20.9267,44.8332,0.0632604,0.0,0.0
774,193.25,26.4207,27.6727,153.28,99.8461,99.2319,0.0177595,0.0672955,20.9267,44.7932,0.0565157,0.0,0.0
777,194,26.3555,28.3936,151.584,99.8306,99.2713,0.0176912,0.0673256,20.9267,44.7532,0.0514677,0.0,0.0
780,194.75,26.4111,27.704,154.292,99.8245,99.4105,0.0176299,0.0675565,20.9267,44.7031,0.03807,0.0,0.0
783,195.5,26.4901,28.0253,154.506,99.784,99.2812,0.0175657,0.0677479,20.9274,44.6631,0.0462757,0.0,0.0
786,196.25,26.4175,28.1193,152.947,99.7953,99.3948,0.0175303,0.0679269,20.9279,44.6831,0.0368389,0.0,0.0
789,197,26.6862,28.0316,150.136,99.7827,99.5188,0.0175241,0.0680428,20.9282,44.6831,0.0242639,0.0,0.0
792,197.75,26.2618,28.0138,154.744,99.7742,99.2447,0.0175466,0.0680825,20.9284,44.6631,0.0487406,0.0,0.0
795,198.5,26.2191,27.8591,154.27,99.7507,99.2625,0.0175675,0.0680566,20.9283,44.623,0.0449457,0.0,0.0
798,199.25,25.8218,28.3665,155.84,99.7389,99.1916,0.0176035,0.0679681,20.9279,44.593,0.0504046,0.0,0.0
801,200,26.1113,28.4057,155.145,99.7304,99.477,0.0176434,0.0678478,20.9276,44.573,0.0233065,0.0,0.0
804,200.75,26.6347,27.8394,157.162,99.7101,99.259,0.0176792,0.0677074,20.9274,44.553,0.0415351,0.0,0.0
807,201.5,26.48,27.8286,157.681,99.6837,99.2005,0.0177104,0.0675904,20.9272,44.553,0.0445165,0.0,0.0
810,202.25,26.0762,27.7921,157.264,99.6947,99.3751,0.0177368,0.0675296,20.9271,44.553,0.0294085,0.0,0.0
813,203,26.6988,27.8869,159,99.6687,99.5547,0.0177589,0.0675381,20.927,44.5129,0.0104816,0.0,0.0
816,203.75,26.1713,27.5538,154.087,99.663,99.3741,0.0177799,0.067515,20.9276,44.4929,0.0265899,0.0,0.0
819,204.5,26.7252,27.9057,155.376,99.6269,99.2738,0.0177912,0.0674856,20.928,44.4829,0.0325255,0.0,0.0
822,205.25,26.3225,27.8275,156.773,99.6265,99.0893,0.017784,0.0673807,20.9283,44.4429,0.0495292,0.0,0.0
825,206,26.0415,27.6939,153.195,99.6167,99.3333,0.0177555,0.0672749,20.9285,44.4529,0.026101,0.0,0.0
828,206.75,26.2456,27.9156,157.638,99.6082,99.1542,0.0176902,0.0671699,20.9287,44.4228,0.0418482,0.0,0.0
831,207.5,26.4945,28.0977,158.298,99.5737,99.2585,0.0176208,0.0670671,20.9288,44.3928,0.0290428,0.0,0.0
834,208.25,26.0725,27.8671,156.404,99.5514,99.0258,0.017566,0.0670067,20.9289,44.3828,0.0484919,0.0,0.0
837,209,26.283,27.9441,154.859,99.562,99.2137,0.0175346,0.0669843,20.9289,44.3728,0.0320935,0.0,0.0
840,209.75,26.1583,27.7014,153.951,99.5205,99.2669,0.0175289,0.0669944,20.929,44.3628,0.0233784,0.0,0.0
843,210.5,26.3313,28.0634,153.199,99.5084,99.167,0.017554,0.0670094,20.929,44.3528,0.0314797,0.0,0.0
846,211.25,26.809,27.5622,151.761,99.4763,98.981,0.0175778,0.0670336,20.929,44.3227,0.0457237,0.0,0.0
849,212,26.0995,27.8365,152.004,99.4759,99.045,0.0175953,0.0670059,20.9291,44.2427,0.0397685,0.0,0.0
852,212.75,26.5209,27.5955,152.68,99.4524,99.0268,0.0176042,0.0669356,20.9288,44.2427,0.0392835,0.0,0.0
855,213.5,26.3666,27.7124,152.311,99.4179,99.1021,0.0176166,0.0668316,20.9287,44.2427,0.0291451,0.0,0.0
858,214.25,26.3577,28.2003,158.091,99.3964,99.2506,0.0176284,0.0668811,20.9286,44.1826,0.0134393,0.0,0.0
861,215,26.5409,27.9078,154.502,99.3878,99.0863,0.017642,0.0668941,20.9285,44.0725,0.0278333,0.0,0.0
864,215.75,26.1532,27.8871,156.556,99.361,99.1247,0.0176491,0.066864,20.9284,44.1826,0.0218163,0.0,0.0
867,216.5,26.238,27.8567,153.38,99.3497,99.0937,0.0176532,0.0668128,20.9284,44.1226,0.0236333,0.0,0.0
870,217.25,26.2114,27.6135,154.289,99.3306,98.9313,0.0176303,0.066763,20.9283,44.1226,0.0368965,0.0,0.0
873,218,26.213,27.6651,155.679,99.3063,98.9805,0.0176026,0.0667267,20.9283,44.0725,0.0300953,0.0,0.0
876,218.75,26.2463,27.8908,158.995,99.2969,98.9274,0.0175472,0.066742,20.9282,44.0525,0.0341532,0.0,0.0
879,219.5,26.5011,28.1179,154.415,99.2766,98.8251,0.0174917,0.0667532,20.928,44.0625,0.0417623,0.0,0.0
882,220.25,26.0994,27.5593,155.591,99.2417,98.8895,0.0174318,0.0667613,20.9278,44.0325,0.0325679,0.0,0.0
885,221,25.9691,27.2928,156.192,99.2267,98.8723,0.0173828,0.0668925,20.9277,44.0425,0.0327779,0.0,0.0
888,221.75,26.1636,27.5386,158.27,99.2023,98.7065,0.0173447,0.067032,20.9276,44.0425,0.0459041,0.0,0.0
891,222.5,26.4521,28.0161,157.059,99.1812,98.8177,0.0173074,0.0671609,20.9276,44.0124,0.0336407,0.0,0.0
894,223.25,26.2199,27.3555,155.16,99.1492,98.8108,0.0172762,0.0672693,20.9276,43.9924,0.0313175,0.0,0.0
897,224,26.1438,27.4642,154.487,99.148,98.6189,0.0172517,0.0673336,20.9278,43.9924,0.0490111,0.0,0.0
900,224.75,26.3886,27.4952,157.907,99.1118,99.0228,0.0172528,0.0673743,20.9279,43.9724,0.00822893,0.0,0.0
903,225.5,26.0506,28.0377,155.973,99.0915,98.7611,0.0172617,0.0674333,20.928,43.9724,0.0305993,0.0,0.0
906,226.25,26.2004,27.848,153.854,99.0753,98.8216,0.0173089,0.067481,20.9277,43.9624,0.0234873,0.0,0.0
909,227,26.5805,27.5581,153.404,99.0623,98.7129,0.0173685,0.0675026,20.9272,43.9123,0.0323709,0.0,0.0
912,227.75,25.9513,27.8945,158.01,99.038,98.9239,0.0174046,0.0674844,20.927,43.8823,0.0105525,0.0,0.0
915,228.5,26.2256,28.005,155.936,99.001,98.7606,0.0174538,0.0674402,20.9273,43.8523,0.0222749,0.0,0.0
918,229.25,26.2517,27.9114,157.684,98.9994,98.4536,0.0174935,0.0673685,20.9276,43.8823,0.0506456,0.0,0.0
921,230,26.0781,27.5456,158.163,98.9673,98.9043,0.0175211,0.0672953,20.9278,43.8323,0.00584037,0.0,0.0
924,230.75,26.5194,27.8698,152.124,98.9503,98.9053,0.0175406,0.0672497,20.9279,43.8022,0.0041716,0.0,0.0
927,231.5,26.3505,27.9358,153.751,98.9199,98.5918,0.0175412,0.0672296,20.928,43.7722,0.0304273,0.0,0.0
930,232.25,26.4454,28.326,156.901,98.9036,98.6902,0.0175359,0.0672296,20.9281,43.7122,0.0197854,0.0,0.0
933,233,26.1036,27.5332,157.393,98.876,98.7985,0.0175262,0.0672589,20.9281,43.7122,0.00718695,0.0,0.0
936,233.75,26.5067,27.4647,156.172,98.8708,98.5343,0.0175219,0.0673198,20.9282,43.6621,0.0312283,0.0,0.0
939,234.5,26.5551,27.9222,155.932,98.8492,98.4683,0.0175156,0.0673016,20.9282,43.6521,0.0353672,0.0,0.0
942,235.25,26.6124,27.6703,155.557,98.833,98.6341,0.0175036,0.067259,20.9282,43.6821,0.0184505,0.0,0.0
945,236,26.3723,27.7077,156.859,98.8233,98.4723,0.0174705,0.0672155,20.9283,43.7322,0.0325929,0.0,0.0
948,236.75,26.1123,28.0313,157.67,98.8062,98.4418,0.0174266,0.0671629,20.9283,43.7122,0.0338507,0.0,0.0
951,237.5,26.4536,27.8812,151.456,98.7985,98.8113,0.0173787,0.0670861,20.9283,43.7021,-0.00118326,0.0,0.0
954,238.25,26.1211,27.6432,155.533,98.7908,98.7468,0.0173235,0.0669641,20.9283,43.6421,0.00407883,0.0,0.0
957,239,26.3877,27.9109,155.334,98.7811,98.6445,0.0172746,0.0668021,20.9283,43.602,0.0126727,0.0,0.0
960,239.75,26.4484,27.82,158.178,98.7709,98.4885,0.0172273,0.0666836,20.9283,43.6221,0.0262284,0.0,0.0
963,240.5,25.3761,26.5705,157.484,98.7701,98.488,0.0171887,0.0666498,20.9283,43.592,0.0261979,0.0,0.0
966,241.25,25.0198,26.0278,157.308,98.7742,98.6661,0.0171589,0.0666253,20.9283,43.572,0.0100235,0.0,0.0
969,242,25.1286,25.9472,156.943,98.7725,98.7562,0.0171385,0.0667117,20.9283,43.572,0.00151667,0.0,0.0
972,242.75,24.8525,26.3046,157.117,98.7461,98.58,0.0171242,0.0667309,20.9277,43.522,0.0154236,0.0,0.0
975,243.5,24.8008,26.2362,156.862,98.7563,98.4742,0.0171409,0.0667261,20.9273,43.4819,0.0262001,0.0,0.0
978,244.25,24.2969,25.6344,156.018,98.7531,98.6214,0.0171802,0.0667435,20.9269,43.4519,0.0122234,0.0,0.0
981,245,24.5819,26.3343,157.416,98.7453,98.5849,0.0172204,0.0668024,20.9267,43.4619,0.0148916,0.0,0.0
984,245.75,24.7274,26.5022,157.428,98.7498,98.4241,0.0173081,0.0669244,20.9265,43.4419,0.0302673,0.0,0.0
987,246.5,24.6895,26.1281,155.224,98.7587,98.4004,0.017397,0.066984,20.9264,43.4619,0.0332936,0.0,0.0
990,247.25,24.3668,26.0575,152.732,98.7636,98.5151,0.0175433,0.0670382,20.9263,43.4419,0.0230799,0.0,0.0
993,248,24.7571,26.0381,153.286,98.7677,98.6204,0.017688,0.0671172,20.9263,43.3718,0.0136704,0.0,0.0
996,248.75,24.7697,26.2568,156.296,98.7677,98.8383,0.0178191,0.0671956,20.9262,43.3318,-0.00655219,0.0,0.0
999,249.5,24.5274,26.3284,153.763,98.7786,98.6573,0.0179307,0.0672382,20.9262,43.3018,0.0112604,0.0,0.0
1002,250.25,24.4682,25.9526,154.268,98.7977,98.5751,0.0180178,0.0672322,20.9262,43.2817,0.0206604,0.0,0.0
1005,251,24.8299,26.2078,155.109,98.7884,98.4861,0.0180663,0.0671751,20.9261,43.2617,0.028075,0.0,0.0
1008,251.75,24.5508,26.4184,156.548,98.7981,98.6405,0.0180953,0.0670602,20.9261,43.2417,0.0146201,0.0,0.0
1011,252.5,25.1225,25.988,153.892,98.816,98.6927,0.0180647,0.0669453,20.9261,43.2217,0.0114327,0.0,0.0
1014,253.25,24.9563,25.9174,152.874,98.8273,98.6765,0.0179967,0.0668824,20.9261,43.2017,0.0139943,0.0,0.0
1017,254,24.4483,26.2767,154.051,98.8367,98.7173,0.0179067,0.0668597,20.9261,43.1516,0.0110684,0.0,0.0
1020,254.75,25.2925,26.1927,152.374,98.833,98.6583,0.0178112,0.0668826,20.9261,43.1216,0.0162118,0.0,0.0
1023,255.5,24.6497,26.0429,158.429,98.8651,98.6765,0.0177317,0.0669286,20.9261,43.1016,0.0174925,0.0,0.0
1026,256.25,24.6597,25.6787,155.756,98.8708,98.4629,0.0176786,0.0669901,20.9261,43.0916,0.0378634,0.0,0.0
1029,257,24.7717,25.9134,153.719,98.8866,98.7886,0.0176576,0.0670612,20.9261,43.0715,0.00907662,0.0,0.0
1032,257.75,24.6879,26.5508,154.133,98.8939,98.6199,0.0176498,0.0670399,20.9261,43.0815,0.0254161,0.0,0.0
1035,258.5,24.9882,25.8736,155.369,98.9044,98.6942,0.0176441,0.0669931,20.9261,43.0415,0.0194945,0.0,0.0
1038,259.25,24.7087,25.8914,154.023,98.9398,98.9559,0.0176164,0.0668964,20.9261,43.0515,-0.00149726,0.0,0.0
1041,260,24.8997,26.4306,154.969,98.9373,98.8128,0.0175558,0.0667045,20.9261,43.0415,0.0115407,0.0,0.0
1044,260.75,24.102,26.1263,156.016,98.9466,98.7488,0.0174282,0.0665476,20.9261,42.9714,0.0183361,0.0,0.0
1047,261.5,24.5762,25.8787,156.027,98.9531,98.7606,0.0173527,0.0664766,20.9261,42.9614,0.0178413,0.0,0.0
1050,262.25,24.537,25.7941,158.372,98.971,98.7606,0.0172417,0.06638,20.9261,42.9915,0.0194945,0.0,0.0
1053,263,25.2188,26.2161,152.923,98.9945,98.6519,0.0171473,0.066311,20.9261,42.9314,0.0317637,0.0,0.0
1056,263.75,24.2373,26.1993,156.459,98.997,98.5525,0.0170892,0.0662739,20.9261,42.9114,0.0412231,0.0,0.0
1059,264.5,24.5781,26.1152,152.2,99.0087,98.921,0.0170516,0.0662468,20.9261,42.9114,0.00812201,0.0,0.0
1062,265.25,24.7387,25.612,151.412,99.0355,98.9982,0.0170348,0.0663106,20.9261,42.8814,0.00345118,0.0,0.0
1065,266,24.6854,25.9814,158.507,99.0445,98.7532,0.0170409,0.066334,20.9267,42.9114,0.0269765,0.0,0.0
1068,266.75,24.353,25.9326,159.654,99.0501,98.8068,0.0170277,0.0663115,20.9272,42.8713,0.0225287,0.0,0.0
1071,267.5,23.8057,26.3802,154.192,99.0599,98.8875,0.0170106,0.0662805,20.9275,42.8413,0.0159512,0.0,0.0
1074,268.25,23.9344,26.0828,157.436,99.0997,98.9308,0.0169401,0.0662054,20.9282,42.8213,0.0156198,0.0,0.0
1077,269,24.6613,26.0877,157.258,99.1053,99.0046,0.0168735,0.0661117,20.9287,42.8313,0.00931335,0.0,0.0
1080,269.75,24.4896,25.6904,151.871,99.1183,98.9904,0.0167572,0.0659595,20.9293,42.8213,0.0118341,0.0,0.0
1083,270.5,24.0876,26.0738,156.596,99.1135,99.0504,0.0166281,0.0658606,20.9297,42.8213,0.00583164,0.0,0.0
1086,271.25,24.25,25.5859,156.031,99.1431,99.0533,0.0165166,0.0658412,20.93,42.8013,0.00829549,0.0,0.0
1089,272,24.2787,25.3448,154.767,99.1435,99.1212,0.0164408,0.0658896,20.9302,42.7813,0.00205602,0.0,0.0
1092,272.75,24.4076,25.5145,155.698,99.1439,99.1227,0.0163878,0.065925,20.9304,42.7612,0.00195667,0.0,0.0
1095,273.5,24.3754,26.0021,157.362,99.1536,99.134,0.0163762,0.0659507,20.9305,42.7412,0.00181146,0.0,0.0
1098,274.25,24.2347,26.098,158.69,99.1516,99.4396,0.0163956,0.066053,20.9306,42.7012,-0.026566,0.0,0.0
1101,275,24.518,25.8461,152.026,99.1747,99.1291,0.0164378,0.066143,20.9306,42.7012,0.00421526,0.0,0.0
1104,275.75,23.7862,25.5805,157.801,99.1731,99.1055,0.0164766,0.0662349,20.9307,42.6712,0.00624851,0.0,0.0
1107,276.5,24.0819,25.8105,155.174,99.1833,98.8989,0.0165006,0.066281,20.9307,42.6712,0.0263057,0.0,0.0
1110,277.25,24.0893,25.4057,158.275,99.1833,98.9648,0.0165046,0.0663586,20.9301,42.6611,0.0202017,0.0,0.0
1113,278,23.763,25.5694,156.311,99.1914,99.044,0.0164765,0.0664338,20.9297,42.6311,0.0136225,0.0,0.0
1116,278.75,24.5942,25.6812,153.455,99.2182,99.0691,0.0164335,0.0666139,20.9293,42.6311,0.0137751,0.0,0.0
1119,279.5,24.4684,25.695,155.488,99.2019,98.8492,0.0163863,0.0667452,20.9291,42.6011,0.0326343,0.0,0.0
1122,280.25,24.2817,25.5782,159.287,99.1938,99.1685,0.0163555,0.0669245,20.9289,42.541,0.00234096,0.0,0.0
1125,281,24.416,26.2911,159.046,99.2023,99.1537,0.0163377,0.0670844,20.9288,42.531,0.00449141,0.0,0.0
1128,281.75,24.0668,25.265,155.875,99.2141,98.9963,0.0163223,0.0671981,20.9287,42.531,0.0201363,0.0,0.0
1131,282.5,24.4158,25.7667,157.747,99.2036,99.0514,0.0163014,0.0672547,20.9286,42.501,0.0140641,0.0,0.0
1134,283.25,23.9506,25.8901,153.087,99.2023,99.103,0.0162754,0.0672959,20.9286,42.471,0.0091748,0.0,0.0
1137,284,24.4025,25.429,155.739,99.2048,99.076,0.0162482,0.0673113,20.9285,42.471,0.0119006,0.0,0.0
1140,284.75,24.5774,25.7493,155.311,99.2032,99.1793,0.0162224,0.0672931,20.9285,42.4409,0.0022034,0.0,0.0
1143,285.5,24.1604,25.7086,156.631,99.1902,99.0415,0.01619,0.0672404,20.9285,42.4309,0.013737,0.0,0.0
1146,286.25,24.673,25.7645,153.541,99.1796,99.1636,0.0161607,0.067158,20.9285,42.4209,0.00148392,0.0,0.0
1149,287,24.297,25.4434,154.402,99.1987,99.226,0.0161286,0.0671028,20.9285,42.4109,-0.00252561,0.0,0.0
1152,287.75,24.0855,25.6156,157.843,99.1954,99.0588,0.0160539,0.0670372,20.9285,42.3809,0.0126313,0.0,0.0
1155,288.5,23.8175,25.442,155.172,99.1727,99.1449,0.0160169,0.0670342,20.9285,42.3608,0.0025735,0.0,0.0
1158,289.25,23.7269,25.8333,154.215,99.1516,99.2354,0.0159613,0.0669868,20.9288,42.3508,-0.00773685,0.0,0.0
1161,290,24.6821,26.0069,153.822,99.1561,99.0435,0.0159305,0.0669028,20.9291,42.3108,0.0104053,0.0,0.0
1164,290.75,24.2279,25.7275,154.244,99.1524,99.1778,0.0159228,0.0667888,20.9293,42.3108,-0.00234593,0.0,0.0
1167,291.5,24.1217,26.1458,155.822,99.1451,98.8506,0.0159235,0.0667203,20.9294,42.2708,0.0272487,0.0,0.0
1170,292.25,24.5318,25.9598,159.663,99.1252,98.8925,0.0159587,0.0666843,20.9295,42.2708,0.0215363,0.0,0.0
1173,293,24.5627,25.3255,158.872,99.1196,99.1203,0.0160235,0.0666713,20.9296,42.2507,-6.55206e-05,0.0,0.0
1176,293.75,24.3671,25.5378,156.414,99.1106,99.1296,0.0160875,0.0667203,20.9296,42.2207,-0.00175502,0.0,0.0
1179,294.5,24.0013,25.6574,157.136,99.0993,99.1326,0.0161908,0.0667811,20.9297,42.1807,-0.00307779,0.0,0.0
1182,295.25,23.9339,26.128,155.979,99.0863,98.8811,0.0163132,0.066888,20.9297,42.1807,0.0189834,0.0,0.0
1185,296,24.5095,25.9316,154.035,99.07,98.9953,0.0164414,0.0669505,20.9297,42.1707,0.00691415,0.0,0.0
1188,296.75,24.5108,25.2918,159.254,99.0777,98.9968,0.0165696,0.0669697,20.9297,42.1406,0.00749028,0.0,0.0
1191,297.5,24.2495,25.9794,155.427,99.0579,99.1173,0.0166753,0.066942,20.93,42.1306,-0.00549662,0.0,0.0
1194,298.25,23.9402,24.99,150.778,99.0441,98.8241,0.0167575,0.0669071,20.9306,42.1406,0.0203695,0.0,0.0
1197,299,24.3835,25.886,159.993,99.029,98.9746,0.0168252,0.0668755,20.931,42.0906,0.00503495,0.0,0.0
1200,299.75,24.5499,25.5385,154.09,99.0294,98.9569,0.0168637,0.0668524,20.9313,42.0906,0.00671228,0.0,0.0
1203,300.5,24.0537,25.4445,152.134,99.0124,99.072,0.0168872,0.0667916,20.9315,42.0806,-0.00551684,0.0,0.0
1206,301.25,23.5443,25.2586,152.696,98.9937,98.7414,0.0168582,0.0667286,20.9317,42.0505,0.0233784,0.0,0.0
1209,302,24.0822,24.912,155.81,98.9637,98.9426,0.0167954,0.0666201,20.9318,42.0505,0.00194902,0.0,0.0
1212,302.75,24.3704,25.2288,156.869,98.9779,99.164,0.0167118,0.0665849,20.9319,42.0305,-0.017212,0.0,0.0
1215,303.5,24.3169,25.0555,156.383,98.9665,98.861,0.0166293,0.0665779,20.932,42.0005,0.00977697,0.0,0.0
1218,304.25,24.186,25.7751,152.841,98.9442,98.7699,0.016567,0.0665728,20.932,42.0005,0.0161485,0.0,0.0
1221,305,24.0603,25.7012,158.371,98.928,98.7847,0.0165338,0.0665106,20.932,41.9905,0.0132757,0.0,0.0
1224,305.75,24.1388,25.8189,155.396,98.9393,98.856,0.0165501,0.0664403,20.9321,41.9505,0.00771505,0.0,0.0
1227,306.5,24.0305,25.0968,155.808,98.9296,99.0091,0.016589,0.0663681,20.9321,41.9505,-0.00735488,0.0,0.0
1230,307.25,23.8813,25.3919,152.226,98.9073,98.8457,0.016617,0.0663466,20.9321,41.9304,0.00570286,0.0,0.0
1233,308,23.9392,25.6257,161.392,98.8963,98.6125,0.0166458,0.0663416,20.9321,41.9204,0.0263275,0.0,0.0
1236,308.75,24.345,25.0245,156.428,98.8951,98.798,0.0166607,0.0664111,20.9321,41.9104,0.00900026,0.0,0.0
1239,309.5,23.8297,25.0965,151.071,98.8914,98.6287,0.0166329,0.066493,20.9321,41.8904,0.0243673,0.0,0.0
1242,310.25,24.6526,25.8367,155.467,98.8639,98.4949,0.0165735,0.0664901,20.9321,41.8704,0.0342489,0.0,0.0
1245,311,24.1764,25.5322,157.115,98.861,98.6445,0.0165134,0.0664879,20.9321,41.8604,0.0200851,0.0,0.0
1248,311.75,24.7436,25.7473,156.533,98.8643,98.6341,0.0164575,0.0664446,20.9317,41.8303,0.0213457,0.0,0.0
1251,312.5,23.9838,25.5233,154.525,98.8582,98.5987,0.0164115,0.0664862,20.9307,41.8203,0.0240722,0.0,0.0
1254,313.25,24.298,25.4157,159.055,98.8549,98.5141,0.0164301,0.0665785,20.93,41.8103,0.0316364,0.0,0.0
1257,314,24.0021,25.7718,156.309,98.8322,98.4556,0.0165031,0.0666986,20.9295,41.7703,0.0349767,0.0,0.0
1260,314.75,24.3221,25.6686,158.705,98.8326,98.4432,0.0165818,0.0667714,20.9291,41.7302,0.0361591,0.0,0.0
1263,315.5,24.0449,25.369,160.174,98.8318,98.5505,0.0167164,0.0668183,20.9288,41.7302,0.0261086,0.0,0.0
1266,316.25,24.072,25.7447,154.889,98.8375,98.5554,0.0168667,0.0668942,20.9286,41.7002,0.0261773,0.0,0.0
1269,317,24.6092,25.4735,162.044,98.8127,98.489,0.0170093,0.0669496,20.9285,41.6702,0.0300583,0.0,0.0
1272,317.75,24.5172,25.7529,157.192,98.7973,98.3001,0.017121,0.0669899,20.9284,41.6602,0.0462181,0.0,0.0
1275,318.5,24.0574,25.2831,156.421,98.8009,98.6868,0.0171889,0.0669567,20.9283,41.6602,0.0105885,0.0,0.0
1278,319.25,24.055,25.608,154.063,98.8026,98.5712,0.017219,0.0668886,20.9282,41.6201,0.0214786,0.0,0.0
1281,320,24.2507,25.1517,154.163,98.8001,98.3045,0.0172177,0.0668048,20.9282,41.6101,0.0460692,0.0,0.0
1284,320.75,24.2174,25.5732,155.951,98.7859,98.4054,0.0171947,0.0667173,20.9282,41.6101,0.0353574,0.0,0.0
1287,321.5,24.3144,25.4049,155.288,98.7863,98.492,0.01714,0.0666382,20.9282,41.5901,0.0273379,0.0,0.0
1290,322.25,23.9551,25.584,157.799,98.794,98.6642,0.0170702,0.0665542,20.9281,41.5601,0.0120511,0.0,0.0
1293,323,23.5919,25.2275,155.055,98.7863,98.4718,0.0169682,0.0664344,20.9281,41.5701,0.0292137,0.0,0.0
1296,323.75,24.3918,25.3867,155.55,98.7693,98.3857,0.0168648,0.0663375,20.9281,41.53,0.0356468,0.0,0.0
1299,324.5,24.314,25.1376,156.909,98.7725,98.8447,0.0167786,0.0662932,20.9281,41.52,-0.00669426,0.0,0.0
1302,325.25,24.1704,25.2049,153.792,98.7839,98.4487,0.0167076,0.066217,20.9281,41.53,0.0311402,0.0,0.0
1305,326,24.0055,25.4585,158.039,98.7701,98.4954,0.0166498,0.0661505,20.9281,41.52,0.0255119,0.0,0.0
1308,326.75,24.0232,25.2049,155.927,98.7632,98.677,0.0166117,0.0661151,20.9281,41.48,0.00800309,0.0,0.0
1311,327.5,23.8742,25.5215,154.887,98.7677,98.8821,0.0165885,0.0661639,20.9281,41.49,-0.0106101,0.0,0.0
1314,328.25,24.195,25.8874,155.711,98.7782,98.6848,0.0165766,0.0662158,20.9281,41.46,0.00866424,0.0,0.0
1317,329,24.5211,25.6736,153.692,98.762,98.6814,0.0165701,0.0662273,20.9281,41.44,0.00747828,0.0,0.0
1320,329.75,24.6726,25.5505,157.169,98.7664,98.7365,0.0165689,0.0661818,20.9283,41.4199,0.00277873,0.0,0.0
1323,330.5,23.9295,25.7252,154.721,98.7851,98.3936,0.0165573,0.0660564,20.9287,41.3999,0.036381,0.0,0.0
1326,331.25,24.5757,25.7236,150.489,98.7827,98.4826,0.0165414,0.0660382,20.9294,41.3999,0.0278681,0.0,0.0
1329,332,24.2876,25.5343,156.007,98.7957,98.3468,0.0165249,0.0661439,20.9299,41.3599,0.0417123,0.0,0.0
1332,332.75,24.6175,25.5334,153.955,98.7811,98.6966,0.0165206,0.0662661,20.9303,41.3399,0.00783179,0.0,0.0
1335,333.5,24.3236,25.708,162.476,98.7859,98.7212,0.0165255,0.0663683,20.9306,41.3098,0.00600079,0.0,0.0
1338,334.25,24.9235,25.4041,153.923,98.807,98.8093,0.0165326,0.0664429,20.9308,41.2998,-0.00021076,0.0,0.0
1341,335,24.3393,25.9451,153.052,98.8087,98.6504,0.0165432,0.0664346,20.9306,41.2798,0.0146844,0.0,0.0
1344,335.75,24.3289,25.6467,154.381,98.8054,98.3266,0.0165532,0.06637,20.93,41.2698,0.0444947,0.0,0.0
1347,336.5,24.296,25.3243,154.976,98.8087,98.4836,0.0165402,0.066298,20.9296,41.2598,0.0301857,0.0,0.0
1350,337.25,24.4327,25.7822,154.424,98.8399,98.6179,0.0165221,0.0662162,20.9293,41.2298,0.0205972,0.0,0.0
1353,338,24.4061,25.5555,154.374,98.848,98.7355,0.0164874,0.0661812,20.9291,41.2197,0.0104336,0.0,0.0
1356,338.75,23.8529,25.9199,156.022,98.8505,98.4019,0.0164648,0.0662191,20.9287,41.1897,0.0416601,0.0,0.0
1359,339.5,24.7173,25.6316,155.527,98.8663,98.8098,0.0164523,0.066351,20.9282,41.1797,0.00523576,0.0,0.0
1362,340.25,24.4996,25.4004,162.211,98.8756,98.5726,0.0164481,0.0665012,20.9271,41.1797,0.028112,0.0,0.0
1365,341,23.8116,25.4893,159.277,98.8728,98.7055,0.0164545,0.0667029,20.9264,41.1597,0.0155119,0.0,0.0
1368,341.75,23.9685,25.223,155.743,98.8947,98.6263,0.0164618,0.0670796,20.9258,41.1597,0.0248977,0.0,0.0
1371,342.5,23.8767,25.9621,161.195,98.9008,98.9643,0.0164646,0.0674776,20.9254,41.1297,-0.00588015,0.0,0.0
1374,343.25,24.5091,25.3386,158.922,98.9195,98.8693,0.0164568,0.0679787,20.9251,41.1197,0.00464312,0.0,0.0
1377,344,23.77,25.4855,153.615,98.9324,98.8,0.016434,0.0687544,20.9249,41.0996,0.0122757,0.0,0.0
1380,344.75,23.9907,25.4074,155.553,98.9519,98.9795,0.0164155,0.0696416,20.9248,41.0796,-0.0025562,0.0,0.0
1383,345.5,24.1555,25.6417,159.384,98.9466,98.8083,0.0164236,0.0705391,20.9244,41.0596,0.0128145,0.0,0.0
1386,346.25,24.2305,25.4909,153.116,98.9738,98.9274,0.0164515,0.0712815,20.9238,41.0296,0.0043004,0.0,0.0
1389,347,24.3223,25.4385,155.667,98.9921,98.9564,0.0164938,0.0718371,20.9227,41.0196,0.00330272,0.0,0.0
1392,347.75,24.0183,25.5304,154.388,99.012,98.892,0.0165301,0.0722024,20.9216,40.9895,0.011111,0.0,0.0
1395,348.5,23.8956,25.1244,157.678,99.0327,98.9264,0.016551,0.0722781,20.9204,40.9895,0.00983696,0.0,0.0
1398,349.25,24.5479,25.6048,155.674,99.0282,98.9348,0.0165528,0.0722056,20.9196,40.9595,0.00864897,0.0,0.0
1401,350,23.7543,25.6245,153.203,99.0765,98.92,0.0165514,0.0720735,20.919,40.9495,0.0144827,0.0,0.0
1404,350.75,24.6346,25.9808,156.953,99.0911,98.8418,0.0165493,0.071816,20.9185,40.9295,0.023081,0.0,0.0
1407,351.5,24.4255,25.7796,156.723,99.096,99.0858,0.0165477,0.0715594,20.9184,40.9195,0.000942352,0.0,0.0
1410,352.25,24.4164,25.384,155.185,99.1066,98.9023,0.0165395,0.0711425,20.9187,40.8994,0.0188995,0.0,0.0
1413,353,24.3201,25.5166,156.011,99.1394,99.0543,0.0165213,0.0707359,20.919,40.8794,0.00786671,0.0,0.0
1416,353.75,23.9649,25.8439,154.937,99.1634,99.0647,0.0165003,0.0703958,20.9192,40.8794,0.00912462,0.0,0.0
1419,354.5,23.8967,25.1148,154.661,99.1829,98.9594,0.0164891,0.0700224,20.9193,40.8594,0.0206647,0.0,0.0
1422,355.25,24.4248,25.6848,154.17,99.2125,99.2265,0.016484,0.0696331,20.9194,40.8494,-0.0012963,0.0,0.0
1425,356,24.1351,25.8138,155.376,99.2377,99.2,0.0164828,0.0692608,20.9195,40.8494,0.00347956,0.0,0.0
1428,356.75,24.4469,25.5448,153.293,99.2559,99.3559,0.0164634,0.0689235,20.9195,40.8094,-0.00922554,0.0,0.0
1431,357.5,24.2246,25.4834,156.127,99.2632,99.0765,0.0164176,0.0686775,20.9198,40.7993,0.0172516,0.0,0.0
1434,358.25,24.4937,25.4627,156.625,99.2827,99.3417,0.0163842,0.0684147,20.9204,40.7793,-0.00543816,0.0,0.0
1437,359,24.2805,25.9226,160.138,99.316,99.3461,0.0162502,0.0681776,20.9217,40.7393,-0.0027763,0.0,0.0
1440,359.75,24.3445,25.6608,159.396,99.3412,99.3402,0.0161107,0.0679269,20.9233,40.7393,8.9544e-05,0.0,0.0
1442,360.25,24.0006,25.6128,157.949,99.3521,99.2177,0.016027,0.0677256,20.9245,40.7493,0.0124033,0.0,0.0