File: 01_Data/Engineered_Flooring/Cone/Engineered_Flooring_HRRPUA_25.csv
Time after Ignition,Engineered_Flooring_R1,Engineered_Flooring_R2,Engineered_Flooring_R3,Mean,Std. Dev.
0.0,1.3,18.4,16.6,12.1,9.4
0.5,6.6,27.8,22.1,18.8,11.0
1.0,10.5,42.8,36.2,29.8,17.0
1.5,14.1,60.5,47.0,40.5,23.8
2.0,22.9,76.5,60.7,53.3,27.5
2.5,29.6,93.5,77.4,66.8,33.2
3.0,35.7,109.9,89.2,78.3,38.3
3.5,39.9,124.7,106.4,90.3,44.6
4.0,48.3,137.1,120.4,101.9,47.2
4.5,59.8,149.2,137.0,115.3,48.5
5.0,68.8,155.8,152.4,125.7,49.3
5.5,82.6,165.7,158.4,135.6,46.0
6.0,97.6,171.7,170.9,146.7,42.6
6.5,110.6,180.2,176.3,155.7,39.1
7.0,131.6,177.1,181.7,163.5,27.7
7.5,143.6,184.2,184.5,170.8,23.5
8.0,157.7,186.4,192.7,178.9,18.6
8.5,165.7,186.6,190.4,180.9,13.3
9.0,179.3,188.9,193.7,187.3,7.3
9.5,187.5,187.1,190.6,188.4,1.9
10.0,190.4,184.8,189.5,188.2,3.0
10.5,198.6,184.8,190.2,191.2,7.0
11.0,204.4,182.2,191.1,192.6,11.1
11.5,205.0,183.5,191.7,193.4,10.8
12.0,207.3,181.2,188.6,192.4,13.5
12.5,214.9,176.3,188.8,193.3,19.7
13.0,207.5,174.9,184.1,188.8,16.8
13.5,209.2,173.1,184.8,189.1,18.4
14.0,207.0,168.4,181.7,185.7,19.6
14.5,203.1,165.1,182.9,183.7,19.0
15.0,204.9,166.2,182.2,184.4,19.4
15.5,196.8,167.0,182.4,182.1,14.9
16.0,194.4,165.3,183.8,181.2,14.7
16.5,192.1,163.2,180.1,178.5,14.5
17.0,188.8,161.3,182.2,177.4,14.4
17.5,186.2,159.9,178.1,174.7,13.5
18.0,181.5,163.9,176.4,173.9,9.1
18.5,182.7,158.9,179.8,173.8,13.0
19.0,176.7,160.8,179.4,172.3,10.1
19.5,171.7,161.0,177.9,170.2,8.6
20.0,173.4,161.4,175.2,170.0,7.5
20.5,170.7,160.6,173.8,168.4,6.9
21.0,164.6,161.0,175.5,167.0,7.5
21.5,164.3,159.9,174.7,166.3,7.6
22.0,165.7,160.2,175.6,167.2,7.8
22.5,158.4,162.8,170.4,163.9,6.1
23.0,157.7,159.4,169.8,162.3,6.6
23.5,158.2,164.2,168.6,163.7,5.2
24.0,157.0,159.3,169.8,162.0,6.8
24.5,156.1,160.7,171.3,162.7,7.8
25.0,157.2,159.0,163.3,159.9,3.1
25.5,154.1,157.8,165.2,159.0,5.6
26.0,157.0,160.3,164.1,160.5,3.5
26.5,155.9,161.1,164.5,160.5,4.3
27.0,155.9,161.2,163.8,160.3,4.0
27.5,153.5,160.4,166.9,160.3,6.7
28.0,154.6,161.1,160.3,158.7,3.6
28.5,153.2,159.7,161.6,158.2,4.4
29.0,153.3,160.4,161.2,158.3,4.3
29.5,153.4,159.6,161.4,158.1,4.2
30.0,152.2,162.6,161.8,158.9,5.8
30.5,152.0,161.1,160.5,157.9,5.1
31.0,152.4,160.4,159.8,157.5,4.4
31.5,153.1,157.9,159.6,156.9,3.4
32.0,150.1,161.8,159.5,157.1,6.2
32.5,151.5,159.6,159.6,156.9,4.7
33.0,149.9,155.9,159.0,154.9,4.6
33.5,148.9,161.0,158.0,156.0,6.3
34.0,153.0,160.9,162.4,158.8,5.0
34.5,150.3,159.0,162.7,157.4,6.3
35.0,149.6,157.9,157.9,155.1,4.8
35.5,150.4,157.0,161.5,156.3,5.6
36.0,148.2,156.7,161.7,155.6,6.9
36.5,150.0,154.4,155.1,153.2,2.7
37.0,146.9,156.3,160.3,154.5,6.9
37.5,147.0,157.7,160.9,155.2,7.3
38.0,145.0,154.4,156.1,151.8,5.9
38.5,148.7,156.7,158.3,154.6,5.2
39.0,145.8,156.2,157.1,153.0,6.3
39.5,146.5,151.8,160.8,153.0,7.2
40.0,147.3,154.4,157.8,153.2,5.4
40.5,144.8,152.5,156.4,151.2,5.9
41.0,146.1,151.3,155.6,151.0,4.8
41.5,143.8,153.6,157.7,151.7,7.2
42.0,141.0,154.8,153.9,149.9,7.7
42.5,141.8,154.2,157.0,151.0,8.1
43.0,139.8,153.0,155.3,149.3,8.3
43.5,140.1,152.9,156.8,149.9,8.7
44.0,139.5,154.2,153.0,148.9,8.2
44.5,138.7,152.0,157.1,149.3,9.5
45.0,137.7,153.6,152.7,148.0,8.9
45.5,136.7,152.0,152.1,147.0,8.9
46.0,135.3,150.3,153.6,146.4,9.8
46.5,137.2,153.1,151.2,147.2,8.7
47.0,134.2,151.5,152.0,145.9,10.1
47.5,139.9,151.8,149.9,147.2,6.4
48.0,134.2,150.3,153.1,145.8,10.2
48.5,134.7,152.0,147.0,144.5,8.9
49.0,132.7,151.5,149.4,144.5,10.3
49.5,133.5,153.4,147.6,144.8,10.2
50.0,133.1,151.2,152.3,145.6,10.8
50.5,131.5,152.6,147.6,143.9,11.0
51.0,134.6,151.4,147.1,144.4,8.7
51.5,133.1,153.4,147.1,144.5,10.4
52.0,129.8,157.3,145.4,144.2,13.8
52.5,132.7,150.3,144.2,142.4,8.9
53.0,132.7,151.2,146.8,143.6,9.7
53.5,132.7,149.7,142.7,141.7,8.6
54.0,134.3,150.3,144.0,142.8,8.1
54.5,130.5,151.0,144.6,142.0,10.5
55.0,132.3,149.5,143.1,141.6,8.7
55.5,132.3,148.1,143.2,141.2,8.1
56.0,131.2,147.2,142.8,140.4,8.3
56.5,130.2,147.1,140.9,139.4,8.6
57.0,132.6,144.4,143.3,140.1,6.5
57.5,128.8,149.0,143.0,140.3,10.4
58.0,130.5,146.0,142.6,139.7,8.1
58.5,130.0,149.6,140.5,140.0,9.8
59.0,130.6,147.4,142.4,140.1,8.6
59.5,129.4,149.7,142.0,140.4,10.2
60.0,130.6,147.8,141.6,140.0,8.7
60.5,129.0,144.3,141.3,138.2,8.1
61.0,127.2,144.2,141.5,137.6,9.2
61.5,129.3,144.9,141.4,138.6,8.2
62.0,128.6,143.3,142.6,138.2,8.3
62.5,128.3,143.6,146.2,139.4,9.6
63.0,128.8,144.7,144.3,139.3,9.1
63.5,125.9,146.0,140.7,137.6,10.4
64.0,127.5,142.8,141.0,137.1,8.4
64.5,126.7,142.1,141.0,136.6,8.6
65.0,124.7,138.5,141.5,134.9,8.9
65.5,125.2,139.8,140.8,135.2,8.8
66.0,124.8,142.7,141.4,136.3,10.0
66.5,126.8,137.7,141.3,135.3,7.5
67.0,125.1,137.9,142.3,135.1,8.9
67.5,124.3,138.0,139.0,133.8,8.2
68.0,122.6,139.6,142.1,134.8,10.6
68.5,123.6,136.6,139.7,133.3,8.5
69.0,124.3,138.5,142.6,135.1,9.6
69.5,123.4,140.1,139.7,134.4,9.5
70.0,123.5,139.7,140.2,134.5,9.5
70.5,123.0,135.3,139.3,132.5,8.5
71.0,124.9,136.0,140.5,133.8,8.0
71.5,124.7,134.5,139.3,132.9,7.4
72.0,125.2,134.0,139.2,132.8,7.1
72.5,124.2,134.8,142.9,134.0,9.4
73.0,122.9,134.5,141.6,133.0,9.5
73.5,123.1,132.9,137.9,131.3,7.6
74.0,124.4,132.6,141.1,132.7,8.3
74.5,122.7,133.6,139.7,132.0,8.6
75.0,123.1,133.8,142.8,133.2,9.8
75.5,126.0,132.7,140.1,132.9,7.0
76.0,125.7,131.7,140.3,132.5,7.4
76.5,122.4,134.5,140.2,132.4,9.1
77.0,122.2,131.9,142.7,132.2,10.3
77.5,123.5,133.0,140.8,132.5,8.7
78.0,122.7,134.7,139.7,132.4,8.7
78.5,124.5,135.2,140.1,133.3,7.9
79.0,124.2,135.7,139.0,133.0,7.8
79.5,124.3,135.7,140.5,133.5,8.3
80.0,125.7,135.3,139.9,133.7,7.2
80.5,125.0,134.1,139.0,132.7,7.1
81.0,123.9,133.1,137.7,131.6,7.0
81.5,125.9,135.8,138.6,133.4,6.7
82.0,125.4,133.8,139.7,133.0,7.2
82.5,124.9,134.4,137.3,132.2,6.5
83.0,126.9,133.4,138.0,132.7,5.6
83.5,123.9,134.6,136.3,131.6,6.7
84.0,126.0,133.1,136.1,131.7,5.2
84.5,126.6,132.3,138.0,132.3,5.7
85.0,127.4,131.8,136.2,131.8,4.4
85.5,129.5,132.9,134.9,132.4,2.7
86.0,127.7,129.8,134.5,130.7,3.5
86.5,128.3,130.8,135.0,131.4,3.4
87.0,128.9,129.9,135.2,131.3,3.4
87.5,127.4,129.3,134.0,130.3,3.4
88.0,132.0,130.2,132.9,131.7,1.4
88.5,129.2,128.5,132.2,129.9,2.0
89.0,129.9,129.9,128.8,129.6,0.6
89.5,129.6,129.0,130.9,129.9,1.0
90.0,127.7,128.5,131.0,129.1,1.7
90.5,130.8,128.5,129.4,129.5,1.1
91.0,130.6,127.5,128.9,129.0,1.5
91.5,130.0,126.1,129.5,128.5,2.1
92.0,127.6,128.4,129.6,128.5,1.0
92.5,129.7,128.2,130.2,129.4,1.1
93.0,127.4,125.8,129.7,127.7,1.9
93.5,128.1,126.9,129.4,128.1,1.2
94.0,127.7,126.3,130.2,128.1,2.0
94.5,130.6,127.1,126.6,128.1,2.2
95.0,127.0,127.7,126.8,127.1,0.5
95.5,128.4,129.7,128.9,129.0,0.7
96.0,128.3,126.6,127.3,127.4,0.9
96.5,127.3,130.8,128.0,128.7,1.9
97.0,126.5,126.8,128.0,127.1,0.8
97.5,128.3,127.0,126.1,127.1,1.1
98.0,125.3,127.5,127.3,126.7,1.2
98.5,126.4,129.5,126.1,127.3,1.9
99.0,125.6,126.1,126.9,126.2,0.7
99.5,126.3,125.6,126.3,126.1,0.4
100.0,125.9,126.3,125.0,125.7,0.7
100.5,127.9,127.2,124.8,126.6,1.6
101.0,127.5,124.3,124.3,125.3,1.8
101.5,127.1,124.6,125.1,125.6,1.3
102.0,124.7,125.8,123.0,124.5,1.4
102.5,127.2,124.8,124.1,125.4,1.6
103.0,128.2,125.2,122.4,125.3,2.9
103.5,125.7,123.6,122.4,123.9,1.7
104.0,124.3,120.9,124.1,123.1,1.9
104.5,124.0,122.8,121.6,122.8,1.2
105.0,124.8,122.4,118.8,122.0,3.0
105.5,121.0,121.6,121.4,121.4,0.3
106.0,122.4,123.2,118.4,121.3,2.5
106.5,127.4,122.0,119.0,122.8,4.3
107.0,123.3,122.4,119.2,121.6,2.1
107.5,123.4,120.2,116.9,120.2,3.2
108.0,124.7,121.8,116.9,121.1,4.0
108.5,122.3,120.3,117.9,120.1,2.2
109.0,122.3,118.7,115.9,119.0,3.2
109.5,121.6,118.8,114.9,118.4,3.3
110.0,121.8,117.2,114.4,117.8,3.7
110.5,122.1,117.6,113.2,117.6,4.4
111.0,122.1,117.9,114.6,118.2,3.8
111.5,122.8,116.1,113.1,117.3,5.0
112.0,123.0,116.6,113.7,117.7,4.8
112.5,122.8,116.4,112.0,117.1,5.4
113.0,121.2,115.6,110.4,115.8,5.4
113.5,121.3,115.8,110.3,115.8,5.5
114.0,124.7,115.2,110.3,116.7,7.3
114.5,123.2,114.0,108.7,115.3,7.3
115.0,123.2,113.7,107.4,114.8,8.0
115.5,120.9,113.6,110.0,114.8,5.6
116.0,122.5,115.1,109.2,115.6,6.7
116.5,123.5,112.6,107.8,114.6,8.1
117.0,125.6,111.9,106.2,114.6,10.0
117.5,121.2,112.7,106.5,113.5,7.4
118.0,125.9,113.5,105.3,114.9,10.4
118.5,123.1,112.9,106.1,114.0,8.5
119.0,122.3,110.2,106.2,112.9,8.4
119.5,121.6,111.5,104.6,112.6,8.6
120.0,122.4,109.9,104.2,112.1,9.3
120.5,122.2,110.1,102.9,111.7,9.8
121.0,121.7,109.7,103.1,111.5,9.4
121.5,121.9,108.6,102.0,110.8,10.1
122.0,120.6,109.5,102.0,110.7,9.4
122.5,119.2,107.7,103.6,110.2,8.1
123.0,121.1,108.8,101.4,110.4,10.0
123.5,119.2,108.8,100.7,109.6,9.3
124.0,119.0,106.9,100.0,108.6,9.6
124.5,119.6,107.5,100.6,109.2,9.6
125.0,118.2,106.0,98.7,107.6,9.9
125.5,116.8,104.4,99.4,106.9,9.0
126.0,117.3,105.9,100.1,107.8,8.8
126.5,118.3,104.6,97.0,106.6,10.8
127.0,117.2,104.1,97.8,106.3,9.9
127.5,114.6,103.5,96.3,104.8,9.2
128.0,116.1,105.0,97.7,106.3,9.3
128.5,117.1,103.8,97.5,106.2,10.0
129.0,116.2,101.5,96.0,104.6,10.4
129.5,117.9,101.0,95.7,104.9,11.6
130.0,114.6,100.1,94.8,103.2,10.3
130.5,115.1,101.7,95.6,104.1,10.0
131.0,115.4,99.9,95.0,103.5,10.6
131.5,115.0,101.4,94.4,103.6,10.5
132.0,115.9,101.6,93.4,103.6,11.4
132.5,113.3,100.3,93.7,102.5,10.0
133.0,111.7,100.8,91.5,101.3,10.1
133.5,113.7,100.3,92.2,102.1,10.9
134.0,113.2,98.3,92.7,101.4,10.6
134.5,113.4,100.5,91.7,101.9,10.9
135.0,113.4,99.2,90.2,100.9,11.7
135.5,110.8,98.5,91.2,100.1,9.9
136.0,112.7,98.2,90.6,100.5,11.2
136.5,111.6,96.5,89.1,99.1,11.4
137.0,111.9,98.0,89.6,99.8,11.3
137.5,111.4,97.7,89.5,99.6,11.1
138.0,110.9,96.0,89.9,98.9,10.8
138.5,109.5,95.7,91.7,99.0,9.4
139.0,108.3,93.7,88.3,96.8,10.4
139.5,107.6,95.9,88.2,97.2,9.8
140.0,110.0,94.7,87.6,97.5,11.4
140.5,107.8,96.8,88.1,97.6,9.9
141.0,108.0,95.9,88.9,97.6,9.7
141.5,108.9,93.7,87.6,96.7,11.0
142.0,110.2,92.7,87.3,96.7,12.0
142.5,106.7,93.1,88.4,96.1,9.5
143.0,106.7,93.5,87.1,95.8,10.0
143.5,106.3,92.7,87.2,95.4,9.8
144.0,106.2,91.2,87.2,94.8,10.0
144.5,106.6,91.5,88.0,95.4,9.9
145.0,106.2,91.5,87.0,94.9,10.1
145.5,105.1,90.7,86.8,94.2,9.6
146.0,103.8,90.7,85.7,93.4,9.4
146.5,104.6,89.6,86.3,93.5,9.8
147.0,105.0,88.6,85.2,92.9,10.6
147.5,104.0,89.8,84.5,92.8,10.1
148.0,101.3,88.9,82.9,91.0,9.4
148.5,101.5,88.9,85.5,92.0,8.5
149.0,100.0,88.2,83.7,90.6,8.4
149.5,103.0,88.1,84.9,92.0,9.7
150.0,101.4,87.8,84.6,91.3,8.9
150.5,99.3,87.2,83.1,89.9,8.4
151.0,100.1,86.8,83.2,90.0,8.9
151.5,98.5,87.2,83.2,89.6,7.9
152.0,99.5,86.4,82.7,89.5,8.8
152.5,97.4,86.7,82.9,89.0,7.5
153.0,99.6,83.9,82.4,88.7,9.5
153.5,97.1,85.0,82.8,88.3,7.7
154.0,96.0,84.8,82.4,87.7,7.3
154.5,96.0,85.7,82.5,88.1,7.0
155.0,93.5,85.2,82.8,87.2,5.6
155.5,95.7,83.3,83.0,87.3,7.2
156.0,94.8,82.8,82.7,86.8,6.9
156.5,93.2,84.5,83.1,86.9,5.5
157.0,93.4,82.8,80.8,85.7,6.8
157.5,92.7,84.1,83.3,86.7,5.2
158.0,92.3,81.5,82.7,85.5,5.9
158.5,92.3,82.4,81.6,85.4,6.0
159.0,90.7,81.9,82.2,84.9,5.0
159.5,90.4,82.1,82.7,85.1,4.6
160.0,89.6,81.8,81.8,84.4,4.5
160.5,88.7,80.7,81.7,83.7,4.4
161.0,89.5,80.6,80.9,83.7,5.1
161.5,87.7,79.2,81.2,82.7,4.4
162.0,88.9,78.5,81.4,82.9,5.3
162.5,88.7,79.0,80.5,82.7,5.2
163.0,87.6,79.2,80.0,82.3,4.6
163.5,88.0,77.4,81.5,82.3,5.3
164.0,86.9,77.5,80.8,81.7,4.8
164.5,87.1,76.8,78.8,80.9,5.4
165.0,86.3,75.5,81.0,80.9,5.4
165.5,86.4,75.9,79.6,80.6,5.3
166.0,86.3,76.2,79.3,80.6,5.2
166.5,85.8,76.3,78.9,80.3,4.9
167.0,84.8,75.0,79.3,79.7,4.9
167.5,84.8,74.4,78.6,79.3,5.2
168.0,85.9,74.4,78.0,79.4,5.9
168.5,83.8,74.1,78.8,78.9,4.9
169.0,85.1,72.5,78.3,78.6,6.3
169.5,84.2,73.5,78.5,78.8,5.3
170.0,82.8,73.3,78.1,78.0,4.7
170.5,84.1,72.7,78.4,78.4,5.7
171.0,83.7,73.0,77.6,78.1,5.4
171.5,83.4,72.1,76.5,77.3,5.7
172.0,82.2,71.3,78.9,77.5,5.6
172.5,81.1,71.8,77.7,76.9,4.7
173.0,82.4,72.1,77.3,77.3,5.2
173.5,80.2,72.0,76.7,76.3,4.1
174.0,80.3,72.7,77.2,76.8,3.8
174.5,80.7,71.0,76.7,76.2,4.9
175.0,79.8,72.0,76.7,76.1,3.9
175.5,80.4,71.5,76.8,76.2,4.4
176.0,79.7,71.3,76.1,75.7,4.2
176.5,81.7,71.6,76.8,76.7,5.1
177.0,81.0,71.4,76.4,76.3,4.8
177.5,79.0,71.4,75.9,75.4,3.8
178.0,78.6,71.4,76.4,75.5,3.7
178.5,80.8,71.1,75.6,75.8,4.9
179.0,79.9,70.5,76.1,75.5,4.7
179.5,78.7,69.2,76.5,74.8,5.0
180.0,79.4,68.6,75.5,74.5,5.5
180.5,77.6,69.0,75.8,74.1,4.5
181.0,78.0,70.1,75.0,74.4,4.0
181.5,77.2,69.1,73.8,73.4,4.1
182.0,77.9,69.1,73.8,73.6,4.4
182.5,76.9,68.9,74.5,73.4,4.1
183.0,77.5,70.0,74.1,73.8,3.8
183.5,76.5,68.0,73.7,72.7,4.3
184.0,75.5,69.3,74.8,73.2,3.4
184.5,74.7,68.6,74.1,72.5,3.4
185.0,74.7,68.6,74.7,72.7,3.5
185.5,75.5,68.2,73.4,72.4,3.8
186.0,74.9,69.2,73.7,72.6,3.0
186.5,74.2,68.1,74.3,72.2,3.6
187.0,75.0,70.0,73.5,72.8,2.6
187.5,74.8,69.1,74.0,72.6,3.1
188.0,74.4,69.1,73.9,72.4,2.9
188.5,73.6,68.5,73.7,71.9,3.0
189.0,74.5,68.7,73.9,72.4,3.2
189.5,74.0,68.3,74.3,72.2,3.4
190.0,73.2,69.0,74.8,72.3,3.0
190.5,73.5,68.4,72.8,71.5,2.8
191.0,73.8,68.2,72.7,71.6,3.0
191.5,72.5,68.0,73.7,71.4,3.0
192.0,73.4,67.3,72.5,71.1,3.3
192.5,71.9,68.9,72.0,70.9,1.8
193.0,74.0,67.6,73.3,71.6,3.5
193.5,71.2,68.2,72.8,70.8,2.3
194.0,71.4,67.7,72.4,70.5,2.5
194.5,70.4,67.7,73.3,70.4,2.8
195.0,71.1,67.3,72.2,70.2,2.6
195.5,70.8,67.1,71.7,69.9,2.4
196.0,71.2,68.3,72.2,70.5,2.0
196.5,71.1,67.9,71.7,70.2,2.0
197.0,71.0,67.9,71.9,70.3,2.1
197.5,70.4,67.9,72.2,70.2,2.1
198.0,71.4,67.2,72.3,70.3,2.7
198.5,69.4,67.3,71.5,69.4,2.1
199.0,69.7,67.5,72.4,69.9,2.4
199.5,70.3,66.5,71.3,69.4,2.5
200.0,68.3,68.0,71.1,69.1,1.7
200.5,70.0,66.3,72.1,69.4,2.9
201.0,69.7,67.2,72.4,69.8,2.6
201.5,69.1,65.9,71.7,68.9,2.9
202.0,68.7,66.6,72.0,69.1,2.7
202.5,69.8,68.2,72.4,70.1,2.1
203.0,70.2,65.2,72.6,69.4,3.8
203.5,69.6,66.7,72.2,69.5,2.7
204.0,68.4,65.2,70.9,68.2,2.8
204.5,68.2,66.2,71.7,68.7,2.8
205.0,68.3,65.7,71.1,68.4,2.7
205.5,69.0,66.7,72.3,69.3,2.8
206.0,68.9,65.8,71.4,68.7,2.8
206.5,67.9,65.8,71.5,68.4,2.9
207.0,67.7,66.1,72.3,68.7,3.2
207.5,69.6,65.5,72.6,69.2,3.6
208.0,67.6,66.8,71.7,68.7,2.7
208.5,67.4,65.9,71.3,68.2,2.8
209.0,67.8,65.7,72.2,68.6,3.3
209.5,68.6,65.9,71.2,68.5,2.6
210.0,68.0,66.7,74.2,69.6,4.0
210.5,68.3,66.9,72.8,69.4,3.1
211.0,67.6,66.7,71.1,68.5,2.3
211.5,67.5,65.7,70.8,68.0,2.5
212.0,68.0,66.0,72.5,68.8,3.3
212.5,68.0,66.7,71.8,68.8,2.6
213.0,68.2,66.5,70.1,68.2,1.8
213.5,69.2,65.6,71.3,68.7,2.9
214.0,67.6,66.8,71.1,68.5,2.3
214.5,67.8,65.9,70.7,68.1,2.4
215.0,68.1,65.3,71.3,68.2,3.0
215.5,67.3,66.0,69.9,67.7,2.0
216.0,68.3,66.3,71.5,68.7,2.6
216.5,67.6,66.9,72.0,68.8,2.8
217.0,67.6,67.3,71.6,68.8,2.4
217.5,67.3,66.7,71.6,68.5,2.7
218.0,67.7,67.7,70.6,68.7,1.7
218.5,67.6,66.8,70.6,68.3,2.0
219.0,66.6,68.5,71.1,68.7,2.2
219.5,66.9,67.6,71.4,68.6,2.4
220.0,67.4,67.1,72.1,68.9,2.8
220.5,66.7,67.9,72.0,68.9,2.8
221.0,67.9,67.0,71.1,68.7,2.1
221.5,66.9,68.1,70.8,68.6,2.0
222.0,66.8,67.9,70.2,68.3,1.7
222.5,67.2,69.1,71.9,69.4,2.4
223.0,68.5,68.0,71.6,69.4,1.9
223.5,67.3,67.4,70.5,68.4,1.8
224.0,67.6,68.2,72.5,69.5,2.7
224.5,66.6,68.0,71.4,68.7,2.5
225.0,67.1,67.6,70.6,68.4,1.9
225.5,67.4,67.3,71.0,68.6,2.1
226.0,66.9,67.1,71.8,68.6,2.8
226.5,67.1,68.2,72.1,69.1,2.6
227.0,67.3,68.5,70.6,68.8,1.7
227.5,67.2,68.0,70.6,68.6,1.8
228.0,67.9,66.9,72.6,69.1,3.0
228.5,67.5,68.1,71.7,69.1,2.3
229.0,66.8,68.0,71.3,68.7,2.3
229.5,67.4,67.1,70.4,68.3,1.8
230.0,67.5,68.9,72.3,69.5,2.5
230.5,66.8,68.7,70.5,68.7,1.8
231.0,66.3,68.8,71.3,68.8,2.5
231.5,67.9,69.3,72.6,69.9,2.4
232.0,67.4,68.0,73.1,69.5,3.2
232.5,66.8,68.7,71.5,69.0,2.4
233.0,67.2,69.4,72.8,69.8,2.8
233.5,66.9,68.9,72.1,69.3,2.6
234.0,67.4,69.3,72.1,69.6,2.4
234.5,67.4,68.6,72.0,69.3,2.4
235.0,67.6,69.8,72.2,69.9,2.3
235.5,68.1,70.6,71.1,69.9,1.6
236.0,68.0,71.0,71.3,70.1,1.9
236.5,68.6,69.5,71.6,69.9,1.5
237.0,68.4,70.4,71.6,70.1,1.6
237.5,67.9,70.3,72.8,70.3,2.5
238.0,68.9,70.1,71.9,70.3,1.5
238.5,69.1,71.6,70.9,70.5,1.3
239.0,69.2,71.4,72.2,70.9,1.6
239.5,69.4,72.8,71.9,71.4,1.7
240.0,68.8,72.3,72.1,71.1,1.9
240.5,70.7,73.1,71.5,71.7,1.2
241.0,69.6,72.4,72.3,71.5,1.6
241.5,69.0,74.4,73.0,72.1,2.8
242.0,71.3,73.7,72.8,72.6,1.2
242.5,69.9,74.1,73.8,72.6,2.3
243.0,70.9,75.2,73.2,73.1,2.2
243.5,70.5,73.6,73.5,72.5,1.8
244.0,70.7,74.2,74.3,73.1,2.1
244.5,69.9,73.6,72.7,72.1,1.9
245.0,70.8,74.2,73.9,73.0,1.9
245.5,71.5,73.7,73.9,73.0,1.3
246.0,71.1,74.5,74.8,73.5,2.1
246.5,71.8,74.7,74.5,73.7,1.6
247.0,70.9,73.4,73.1,72.5,1.3
247.5,70.9,73.6,74.1,72.9,1.7
248.0,71.8,74.5,74.5,73.6,1.5
248.5,72.7,75.6,74.0,74.1,1.4
249.0,72.5,75.4,74.6,74.2,1.5
249.5,72.6,74.8,74.2,73.8,1.1
250.0,71.5,77.0,75.0,74.5,2.8
250.5,72.1,77.6,75.3,75.0,2.8
251.0,72.0,76.5,74.1,74.2,2.2
251.5,72.7,77.2,74.9,74.9,2.3
252.0,74.9,77.1,75.0,75.7,1.2
252.5,73.5,78.6,75.0,75.7,2.6
253.0,73.3,77.4,75.9,75.5,2.1
253.5,73.4,77.7,76.6,75.9,2.3
254.0,74.7,79.0,76.1,76.6,2.2
254.5,73.0,78.3,76.3,75.9,2.7
255.0,74.2,81.1,77.7,77.7,3.5
255.5,73.4,79.1,77.4,76.6,2.9
256.0,73.7,80.2,77.9,77.3,3.3
256.5,73.9,80.6,78.2,77.6,3.4
257.0,75.9,80.2,79.6,78.6,2.3
257.5,74.6,80.3,79.4,78.1,3.0
258.0,74.7,81.4,78.2,78.1,3.4
258.5,75.9,80.9,78.8,78.5,2.5
259.0,76.2,82.8,79.5,79.5,3.3
259.5,76.5,81.6,80.0,79.3,2.6
260.0,76.1,82.5,79.1,79.3,3.2
260.5,76.8,81.3,80.3,79.4,2.4
261.0,76.7,82.0,80.1,79.6,2.7
261.5,76.1,83.2,79.6,79.7,3.5
262.0,77.6,83.3,81.1,80.6,2.9
262.5,78.8,82.3,82.5,81.2,2.1
263.0,77.5,84.3,81.7,81.1,3.4
263.5,77.7,84.7,82.3,81.6,3.6
264.0,78.9,83.9,82.8,81.8,2.6
264.5,78.5,85.7,85.2,83.1,4.0
265.0,79.5,85.4,85.1,83.3,3.3
265.5,79.7,85.7,85.9,83.8,3.5
266.0,79.5,86.7,85.4,83.9,3.8
266.5,79.1,87.0,86.7,84.3,4.4
267.0,79.4,87.9,88.0,85.1,4.9
267.5,79.3,89.3,86.6,85.1,5.2
268.0,79.1,88.8,88.1,85.3,5.4
268.5,79.8,88.4,87.9,85.4,4.9
269.0,80.5,89.0,88.3,85.9,4.7
269.5,81.3,90.1,88.2,86.5,4.6
270.0,80.6,90.0,89.4,86.7,5.3
270.5,81.3,90.8,87.7,86.6,4.8
271.0,81.6,91.8,88.0,87.1,5.1
271.5,83.7,91.0,90.3,88.3,4.0
272.0,85.1,90.7,91.1,89.0,3.3
272.5,86.2,91.1,90.0,89.1,2.5
273.0,85.8,93.4,90.1,89.7,3.8
273.5,87.4,93.1,89.6,90.0,2.8
274.0,86.9,94.0,91.8,90.9,3.6
274.5,88.0,93.4,90.7,90.7,2.7
275.0,88.5,95.7,91.0,91.7,3.7
275.5,89.1,97.5,93.0,93.2,4.2
276.0,90.4,97.1,94.0,93.9,3.4
276.5,90.3,97.1,93.8,93.8,3.4
277.0,90.4,97.8,94.5,94.2,3.7
277.5,89.8,98.6,95.0,94.4,4.4
278.0,92.5,99.9,95.7,96.0,3.7
278.5,91.2,98.6,96.8,95.5,3.9
279.0,93.2,100.1,95.1,96.1,3.5
279.5,93.7,100.4,97.4,97.2,3.3
280.0,92.5,101.8,97.6,97.3,4.7
280.5,92.7,102.5,98.7,98.0,5.0
281.0,94.3,102.7,97.4,98.1,4.2
281.5,94.7,103.0,98.2,98.6,4.2
282.0,95.9,103.5,98.2,99.2,3.9
282.5,94.1,104.3,101.8,100.1,5.3
283.0,94.5,104.8,98.8,99.3,5.1
283.5,96.3,104.4,98.9,99.9,4.1
284.0,96.0,105.7,100.8,100.8,4.9
284.5,97.4,106.2,102.0,101.9,4.4
285.0,96.7,108.2,102.8,102.6,5.8
285.5,96.9,109.0,102.8,102.9,6.1
286.0,99.1,108.3,103.0,103.5,4.6
286.5,99.3,107.9,104.0,103.8,4.3
287.0,101.2,109.4,105.2,105.3,4.1
287.5,102.4,110.3,107.1,106.6,4.0
288.0,103.0,109.8,106.9,106.6,3.4
288.5,103.7,114.3,106.6,108.2,5.5
289.0,102.8,112.6,106.9,107.4,4.9
289.5,104.1,111.8,108.0,108.0,3.8
290.0,107.6,112.8,108.5,109.7,2.8
290.5,105.3,115.3,109.8,110.1,5.0
291.0,106.4,113.2,107.2,108.9,3.7
291.5,106.4,113.9,108.4,109.6,3.9
292.0,105.8,112.2,107.4,108.5,3.3
292.5,107.4,114.3,110.2,110.6,3.4
293.0,108.4,114.1,111.5,111.3,2.9
293.5,110.0,115.6,111.1,112.2,3.0
294.0,108.3,115.3,112.7,112.1,3.5
294.5,108.3,118.3,113.5,113.4,5.0
295.0,111.0,118.3,115.8,115.0,3.7
295.5,110.5,117.5,115.4,114.4,3.6
296.0,110.5,118.3,112.7,113.8,4.0
296.5,113.2,118.6,113.0,114.9,3.2
297.0,111.5,119.8,115.1,115.5,4.1
297.5,112.7,119.7,114.7,115.7,3.6
298.0,114.3,120.8,116.1,117.1,3.4
298.5,115.4,122.6,117.3,118.4,3.7
299.0,115.7,122.8,115.1,117.9,4.2
299.5,114.4,125.7,114.1,118.1,6.6
300.0,117.0,123.9,116.2,119.0,4.3
300.5,115.3,123.3,117.0,118.5,4.2
301.0,116.2,126.2,119.0,120.5,5.2
301.5,116.0,124.6,119.0,119.8,4.4
302.0,118.3,128.0,120.4,122.2,5.1
302.5,117.5,127.2,119.7,121.5,5.0
303.0,118.1,129.2,121.3,122.9,5.7
303.5,117.9,127.1,122.7,122.6,4.6
304.0,119.4,128.1,120.7,122.7,4.7
304.5,119.4,128.7,122.8,123.6,4.7
305.0,118.2,128.0,122.3,122.8,4.9
305.5,118.6,128.7,123.2,123.5,5.1
306.0,119.5,130.4,124.3,124.7,5.4
306.5,118.6,131.2,124.8,124.9,6.3
307.0,121.1,131.2,125.6,126.0,5.1
307.5,118.1,129.5,126.7,124.8,5.9
308.0,121.9,129.4,126.4,125.9,3.8
308.5,121.7,132.3,127.3,127.1,5.3
309.0,121.9,130.5,127.0,126.5,4.3
309.5,121.8,130.3,126.7,126.2,4.3
310.0,122.7,130.6,128.8,127.4,4.1
310.5,124.3,131.3,128.6,128.1,3.5
311.0,123.4,133.4,129.2,128.7,5.0
311.5,123.8,131.8,127.2,127.6,4.0
312.0,124.8,131.4,130.4,128.9,3.6
312.5,122.0,130.9,129.8,127.6,4.9
313.0,123.3,134.5,131.6,129.8,5.8
313.5,122.5,133.7,129.2,128.5,5.7
314.0,124.7,132.8,129.0,128.8,4.0
314.5,125.6,135.8,132.7,131.3,5.2
315.0,124.8,134.8,129.1,129.6,5.0
315.5,123.7,135.6,130.7,130.0,6.0
316.0,126.2,136.0,132.3,131.5,4.9
316.5,127.7,136.8,129.6,131.4,4.8
317.0,126.3,135.0,129.8,130.4,4.4
317.5,129.7,139.1,131.4,133.4,5.0
318.0,127.5,137.6,130.4,131.9,5.2
318.5,128.9,138.8,132.7,133.5,5.0
319.0,129.5,138.0,132.2,133.2,4.3
319.5,130.4,141.3,129.2,133.7,6.7
320.0,129.5,138.5,131.2,133.0,4.8
320.5,128.7,139.8,129.3,132.6,6.3
321.0,129.2,137.7,132.5,133.1,4.3
321.5,131.8,140.5,131.3,134.5,5.2
322.0,130.2,139.2,133.0,134.2,4.6
322.5,130.5,139.1,132.8,134.1,4.5
323.0,131.5,140.5,134.1,135.4,4.7
323.5,132.3,141.4,130.7,134.8,5.7
324.0,133.2,142.5,133.9,136.5,5.1
324.5,133.9,140.7,133.7,136.1,4.0
325.0,134.2,143.2,134.0,137.1,5.2
325.5,133.4,143.4,133.4,136.7,5.8
326.0,134.6,141.0,135.2,136.9,3.5
326.5,135.4,142.7,134.7,137.6,4.4
327.0,132.9,143.9,136.8,137.9,5.6
327.5,134.4,143.2,135.6,137.8,4.8
328.0,133.1,143.4,137.9,138.1,5.2
328.5,135.3,143.8,138.4,139.2,4.3
329.0,133.6,146.9,137.2,139.2,6.9
329.5,135.7,143.3,138.8,139.2,3.8
330.0,134.3,145.2,137.2,138.9,5.6
330.5,135.6,144.8,138.5,139.7,4.7
331.0,136.2,145.3,137.2,139.6,5.0
331.5,134.9,146.6,141.9,141.1,5.9
332.0,136.6,143.7,142.5,140.9,3.8
332.5,138.4,145.9,139.9,141.4,4.0
333.0,138.4,145.3,143.6,142.4,3.6
333.5,139.8,144.9,144.7,143.1,2.9
334.0,139.0,145.8,144.2,143.0,3.6
334.5,140.6,144.6,146.3,143.9,2.9
335.0,139.7,146.1,145.0,143.6,3.5
335.5,140.3,147.1,145.9,144.4,3.6
336.0,145.0,143.9,146.5,145.1,1.3
336.5,143.7,146.1,148.3,146.0,2.3
337.0,143.1,144.9,149.1,145.7,3.1
337.5,144.7,145.4,146.9,145.6,1.1
338.0,145.2,147.4,147.2,146.6,1.2
338.5,144.8,148.8,150.6,148.1,3.0
339.0,146.3,147.4,149.9,147.9,1.9
339.5,146.5,148.6,147.2,147.4,1.1
340.0,143.3,148.2,148.0,146.5,2.8
340.5,147.8,146.0,148.2,147.3,1.2
341.0,146.8,151.6,146.9,148.4,2.8
341.5,146.7,152.3,147.4,148.8,3.0
342.0,146.3,149.4,150.9,148.9,2.3
342.5,146.8,150.0,148.2,148.3,1.6
343.0,144.9,150.6,148.3,147.9,2.9
343.5,147.8,149.1,147.3,148.1,0.9
344.0,147.0,150.4,149.3,148.9,1.7
344.5,145.9,152.3,146.5,148.2,3.6
345.0,145.0,147.3,148.6,147.0,1.8
345.5,147.0,150.4,150.3,149.2,1.9
346.0,145.9,152.6,147.6,148.7,3.5
346.5,147.0,149.4,149.2,148.5,1.4
347.0,148.3,153.6,153.9,151.9,3.1
347.5,147.5,153.7,151.5,150.9,3.2
348.0,148.2,150.1,151.0,149.7,1.4
348.5,148.0,153.2,151.0,150.7,2.6
349.0,148.8,154.6,148.9,150.8,3.3
349.5,147.2,153.8,152.3,151.1,3.5
350.0,151.0,153.2,151.0,151.7,1.3
350.5,146.4,153.5,150.2,150.0,3.6
351.0,148.8,151.5,152.1,150.8,1.8
351.5,150.8,152.9,150.8,151.5,1.2
352.0,150.3,155.5,149.6,151.8,3.2
352.5,151.5,154.7,150.2,152.1,2.3
353.0,147.9,156.4,149.9,151.4,4.5
353.5,149.6,155.0,151.1,151.9,2.8
354.0,151.4,154.9,149.6,152.0,2.7
354.5,150.6,156.6,151.3,152.8,3.3
355.0,153.2,155.3,150.7,153.1,2.3
355.5,150.4,159.1,149.5,153.0,5.3
356.0,153.9,156.7,151.9,154.1,2.4
356.5,154.1,157.7,148.6,153.5,4.5
357.0,155.2,156.7,151.8,154.6,2.5
357.5,154.8,156.7,152.6,154.7,2.0
358.0,156.9,156.2,152.9,155.3,2.2
358.5,156.8,156.4,147.9,153.7,5.0
359.0,154.6,158.0,147.5,153.4,5.4
359.5,156.1,158.5,149.0,154.5,4.9
360.0,153.6,158.9,149.3,153.9,4.8
360.5,158.3,157.4,150.2,155.3,4.5
361.0,156.7,157.9,148.3,154.3,5.2
361.5,158.1,160.5,153.1,157.2,3.8
362.0,157.1,162.4,150.4,156.7,6.0
362.5,158.1,160.7,149.7,156.2,5.7
363.0,155.6,160.2,150.8,155.6,4.7
363.5,157.6,161.9,152.6,157.4,4.7
364.0,155.9,163.7,150.0,156.5,6.9
364.5,160.2,162.4,151.3,158.0,5.9
365.0,161.0,164.5,151.6,159.0,6.7
365.5,157.6,163.8,151.6,157.7,6.1
366.0,157.6,165.6,151.0,158.0,7.3
366.5,160.9,167.6,150.2,159.6,8.8
367.0,157.1,167.5,150.7,158.4,8.5
367.5,160.6,169.4,150.5,160.2,9.4
368.0,158.3,171.6,152.9,160.9,9.6
368.5,158.8,168.4,154.8,160.7,7.0
369.0,162.1,169.6,155.2,162.3,7.2
369.5,161.3,169.7,154.5,161.8,7.6
370.0,160.5,172.1,153.8,162.2,9.3
370.5,160.6,171.1,153.0,161.5,9.1
371.0,162.4,176.3,156.1,164.9,10.3
371.5,162.5,174.1,156.8,164.4,8.8
372.0,162.3,173.1,154.9,163.4,9.1
372.5,162.3,175.1,156.9,164.8,9.3
373.0,161.6,176.3,155.3,164.4,10.8
373.5,163.7,179.3,156.2,166.4,11.8
374.0,164.2,175.6,156.1,165.3,9.8
374.5,164.0,175.6,157.9,165.8,9.0
375.0,162.0,179.4,156.7,166.0,11.9
375.5,160.3,177.4,155.3,164.3,11.6
376.0,161.7,180.3,158.1,166.7,11.9
376.5,164.6,185.6,156.8,169.0,14.9
377.0,165.5,180.7,156.3,167.5,12.3
377.5,165.0,182.0,159.8,168.9,11.6
378.0,162.8,182.7,157.3,167.6,13.4
378.5,164.7,185.3,161.5,170.5,12.9
379.0,166.9,182.9,157.0,168.9,13.1
379.5,165.2,187.8,160.9,171.3,14.5
380.0,164.2,186.6,160.6,170.4,14.1
380.5,164.1,183.3,161.1,169.5,12.1
381.0,165.9,188.8,161.8,172.2,14.5
381.5,167.7,187.7,160.6,172.0,14.1
382.0,166.3,190.3,161.4,172.7,15.4
382.5,165.1,190.6,164.4,173.4,14.9
383.0,166.8,194.4,163.9,175.0,16.8
383.5,163.7,194.9,166.2,174.9,17.3
384.0,170.3,195.4,165.0,176.9,16.3
384.5,170.0,193.3,164.8,176.1,15.2
385.0,169.3,200.1,164.4,177.9,19.4
385.5,170.9,204.4,167.7,181.0,20.3
386.0,169.2,210.2,166.3,181.9,24.6
386.5,172.6,202.8,169.9,181.8,18.2
387.0,175.2,204.0,166.5,181.9,19.7
387.5,173.3,206.2,168.0,182.5,20.7
388.0,173.2,208.1,170.0,183.8,21.1
388.5,172.3,208.2,173.9,184.8,20.3
389.0,173.5,217.4,176.6,189.1,24.5
389.5,179.2,212.6,174.6,188.8,20.8
390.0,178.7,215.0,175.6,189.8,21.9
390.5,178.1,218.5,178.6,191.7,23.2
391.0,180.1,221.8,176.7,192.9,25.1
391.5,181.2,224.8,179.4,195.1,25.7
392.0,178.2,218.6,180.4,192.4,22.7
392.5,181.4,226.9,177.8,195.4,27.4
393.0,186.3,229.3,178.8,198.1,27.2
393.5,184.2,231.8,182.3,199.4,28.1
394.0,185.9,229.6,183.4,199.6,26.0
394.5,190.3,232.1,183.6,202.0,26.3
395.0,187.5,229.1,185.0,200.5,24.8
395.5,189.2,237.0,185.6,203.9,28.7
396.0,191.9,233.9,186.1,204.0,26.1
396.5,192.2,242.2,190.7,208.4,29.3
397.0,194.8,235.8,186.9,205.8,26.3
397.5,195.0,240.6,193.6,209.7,26.8
398.0,199.2,240.5,192.9,210.9,25.9
398.5,196.3,244.1,190.7,210.4,29.3
399.0,196.3,246.8,195.7,212.9,29.3
399.5,203.3,250.5,194.0,215.9,30.3
400.0,201.7,247.4,200.7,216.6,26.7
400.5,205.7,249.0,200.8,218.5,26.5
401.0,208.0,256.3,203.6,222.6,29.3
401.5,209.7,253.2,205.9,223.0,26.3
402.0,215.3,255.4,206.8,225.8,25.9
402.5,214.0,255.1,212.1,227.1,24.3
403.0,220.0,252.0,210.7,227.6,21.6
403.5,216.6,254.5,216.3,229.1,22.0
404.0,220.5,258.2,212.3,230.4,24.5
404.5,218.3,256.3,214.6,229.7,23.1
405.0,226.7,259.0,217.5,234.4,21.8
405.5,229.5,260.6,216.1,235.4,22.8
406.0,229.5,260.0,218.3,235.9,21.6
406.5,234.2,262.4,219.3,238.6,21.9
407.0,228.8,265.0,223.7,239.2,22.5
407.5,236.3,265.4,224.4,242.0,21.1
408.0,243.7,267.3,228.2,246.4,19.7
408.5,238.4,266.9,227.8,244.4,20.2
409.0,242.0,265.5,226.6,244.7,19.6
409.5,246.2,275.7,233.0,251.6,21.9
410.0,250.4,267.4,237.0,251.6,15.2
410.5,249.1,277.3,236.7,254.4,20.8
411.0,253.5,273.0,240.7,255.7,16.3
411.5,253.9,272.7,239.6,255.4,16.6
412.0,257.4,272.7,242.7,257.6,15.0
412.5,261.8,272.5,246.9,260.4,12.9
413.0,259.3,275.0,245.8,260.0,14.7
413.5,264.5,277.3,249.6,263.8,13.9
414.0,264.3,275.1,252.3,263.9,11.4
414.5,266.3,272.0,249.5,262.6,11.7
415.0,268.3,270.1,253.5,264.0,9.1
415.5,267.1,270.5,252.2,263.3,9.7
416.0,272.3,273.3,260.3,268.6,7.2
416.5,270.7,273.8,261.0,268.5,6.7
417.0,272.9,272.8,264.9,270.2,4.6
417.5,271.1,272.6,262.4,268.7,5.5
418.0,273.4,268.5,262.0,267.9,5.7
418.5,273.6,270.9,269.2,271.2,2.2
419.0,274.6,271.7,263.8,270.0,5.6
419.5,272.7,279.7,263.0,271.8,8.4
420.0,276.0,271.3,261.6,269.6,7.3
420.5,278.3,268.7,264.4,270.5,7.1
421.0,282.1,266.1,263.7,270.6,10.0
421.5,281.5,264.0,270.6,272.0,8.8
422.0,282.1,271.7,269.5,274.4,6.8
422.5,281.5,267.0,267.2,271.9,8.3
423.0,282.5,265.9,272.3,273.6,8.4
423.5,285.6,266.8,269.8,274.1,10.1
424.0,284.1,264.3,268.0,272.2,10.5
424.5,288.9,263.7,269.2,273.9,13.3
425.0,281.3,266.7,266.9,271.6,8.4
425.5,284.0,269.8,272.3,275.4,7.5
426.0,283.5,267.9,271.1,274.2,8.2
426.5,286.2,269.8,269.5,275.2,9.6
427.0,289.0,270.5,267.9,275.8,11.5
427.5,287.7,263.2,269.1,273.3,12.8
428.0,294.1,265.9,271.2,277.0,15.0
428.5,290.5,273.0,268.3,277.3,11.7
429.0,289.4,266.7,269.1,275.0,12.5
429.5,285.7,266.5,270.2,274.1,10.2
430.0,285.8,264.5,265.2,271.8,12.1
430.5,288.5,272.0,268.8,276.4,10.6
431.0,286.0,269.6,269.3,275.0,9.6
431.5,288.1,273.0,268.5,276.5,10.3
432.0,288.9,274.2,266.3,276.5,11.5
432.5,283.8,274.0,265.3,274.4,9.2
433.0,287.1,272.5,265.1,274.9,11.2
433.5,280.1,274.0,264.8,273.0,7.7
434.0,282.4,277.2,269.5,276.3,6.5
434.5,277.3,281.2,271.6,276.7,4.9
435.0,282.4,277.9,266.6,275.6,8.1
435.5,281.2,283.8,269.7,278.2,7.5
436.0,278.2,279.2,262.8,273.4,9.2
436.5,278.6,280.6,266.0,275.1,7.9
437.0,282.3,282.7,266.5,277.2,9.2
437.5,278.3,279.1,274.4,277.3,2.5
438.0,281.8,282.1,267.8,277.3,8.2
438.5,280.9,292.5,270.3,281.2,11.1
439.0,279.6,282.1,267.6,276.4,7.7
439.5,275.6,284.8,273.0,277.8,6.2
440.0,273.3,278.7,273.5,275.2,3.0
440.5,277.9,292.9,271.3,280.7,11.1
441.0,282.9,287.8,273.1,281.3,7.5
441.5,272.3,288.0,271.0,277.1,9.4
442.0,278.3,287.0,273.1,279.5,7.0
442.5,281.7,284.3,280.3,282.1,2.1
443.0,275.8,288.5,278.1,280.8,6.8
443.5,281.5,284.7,278.9,281.7,2.9
444.0,277.0,286.1,279.4,280.8,4.7
444.5,275.4,277.0,284.0,278.8,4.6
445.0,280.6,283.8,281.8,282.1,1.6
445.5,271.2,280.8,283.1,278.4,6.3
446.0,276.0,279.7,283.2,279.6,3.6
446.5,274.0,281.3,284.6,280.0,5.4
447.0,274.9,276.2,287.1,279.4,6.7
447.5,280.1,271.6,290.7,280.8,9.6
448.0,279.0,269.4,289.5,279.3,10.0
448.5,274.4,272.9,285.7,277.6,7.0
449.0,277.8,269.5,288.6,278.7,9.6
449.5,277.6,269.3,288.4,278.5,9.6
450.0,277.1,267.0,284.1,276.0,8.6
450.5,270.2,260.0,289.8,273.3,15.1
451.0,274.4,264.1,294.4,277.6,15.4
451.5,267.3,265.0,290.4,274.2,14.0
452.0,273.1,258.9,289.1,273.7,15.1
452.5,268.9,255.0,289.6,271.2,17.4
453.0,272.3,257.1,290.9,273.5,17.0
453.5,273.3,249.7,291.3,271.4,20.9
454.0,272.2,244.8,295.0,270.6,25.2
454.5,271.6,239.6,294.4,268.5,27.5
455.0,270.4,239.1,294.9,268.1,28.0
455.5,265.9,240.3,296.0,267.4,27.9
456.0,268.1,232.5,287.6,262.7,27.9
456.5,271.2,233.2,291.6,265.4,29.6
457.0,271.0,229.0,294.9,265.0,33.3
457.5,262.5,228.1,293.7,261.4,32.8
458.0,260.4,225.8,285.6,257.3,30.0
458.5,256.9,225.3,289.6,257.3,32.2
459.0,258.8,222.9,290.5,257.4,33.8
459.5,260.9,218.4,292.4,257.3,37.2
460.0,259.0,218.9,289.4,255.8,35.4
460.5,254.4,215.8,293.8,254.7,39.0
461.0,257.7,212.1,296.0,255.3,42.0
461.5,256.7,212.9,292.0,253.9,39.6
462.0,254.4,206.1,286.5,249.0,40.5
462.5,252.3,212.0,288.3,250.9,38.1
463.0,253.0,206.0,282.7,247.2,38.7
463.5,250.4,201.0,285.1,245.5,42.2
464.0,251.8,203.8,285.4,247.0,41.0
464.5,245.0,208.7,287.5,247.1,39.4
465.0,248.2,199.6,276.6,241.4,38.9
465.5,247.2,197.3,285.6,243.4,44.3
466.0,246.5,192.7,283.2,240.8,45.5
466.5,247.5,195.1,280.0,240.9,42.8
467.0,246.4,193.4,280.1,240.0,43.7
467.5,244.4,186.9,276.7,236.0,45.5
468.0,241.1,190.9,276.2,236.1,42.9
468.5,243.7,184.4,269.8,232.6,43.8
469.0,239.9,184.5,271.0,231.8,43.9
469.5,234.4,184.8,274.3,231.2,44.8
470.0,237.7,181.1,275.7,231.5,47.6
470.5,233.4,178.1,269.9,227.2,46.2
471.0,237.3,181.3,264.6,227.7,42.4
471.5,235.0,174.8,259.7,223.1,43.7
472.0,228.3,173.2,257.5,219.7,42.8
472.5,226.7,173.4,259.5,219.9,43.4
473.0,226.3,170.5,260.7,219.2,45.5
473.5,228.5,168.8,258.3,218.5,45.5
474.0,219.3,166.7,251.6,212.6,42.8
474.5,224.4,166.0,250.8,213.8,43.4
475.0,219.6,162.4,248.8,210.3,43.9
475.5,212.3,160.9,249.5,207.6,44.5
476.0,212.6,160.1,247.8,206.8,44.1
476.5,214.5,157.8,246.8,206.4,45.1
477.0,211.7,153.0,245.6,203.4,46.9
477.5,207.6,155.6,239.3,200.9,42.3
478.0,204.6,152.1,239.4,198.7,44.0
478.5,202.3,150.8,231.6,194.9,40.9
479.0,201.3,148.3,234.4,194.6,43.4
479.5,201.1,145.8,232.8,193.2,44.1
480.0,198.1,144.3,223.8,188.7,40.6
480.5,200.3,140.9,225.4,188.9,43.4
481.0,192.3,139.5,221.0,184.3,41.3
481.5,191.1,137.8,225.5,184.8,44.2
482.0,189.6,136.4,218.2,181.4,41.5
482.5,189.0,133.9,214.1,179.0,41.0
483.0,187.4,131.8,219.6,179.6,44.4
483.5,187.2,130.7,209.5,175.8,40.6
484.0,182.7,127.6,207.6,172.6,40.9
484.5,182.3,125.2,205.1,170.9,41.2
485.0,181.2,124.5,200.8,168.8,39.7
485.5,176.6,123.5,194.8,165.0,37.0
486.0,175.4,121.3,195.3,164.0,38.3
486.5,173.9,120.0,191.3,161.7,37.2
487.0,173.3,115.2,189.5,159.4,39.1
487.5,167.7,117.8,188.3,157.9,36.3
488.0,167.6,113.5,185.1,155.4,37.3
488.5,166.0,113.5,185.9,155.1,37.4
489.0,166.4,111.2,181.8,153.2,37.1
489.5,163.6,111.1,176.4,150.4,34.6
490.0,162.9,109.6,176.7,149.7,35.5
490.5,158.6,107.9,176.3,147.6,35.5
491.0,156.0,107.2,172.8,145.3,34.1
491.5,157.3,106.7,170.4,144.8,33.6
492.0,153.1,103.5,168.5,141.7,34.0
492.5,151.7,102.5,168.1,140.8,34.1
493.0,150.2,102.6,161.6,138.1,31.3
493.5,145.8,100.8,160.1,135.6,30.9
494.0,143.0,100.2,159.8,134.3,30.7
494.5,140.7,97.8,156.8,131.8,30.5
495.0,137.7,98.1,156.8,130.9,30.0
495.5,134.7,96.6,151.4,127.6,28.1
496.0,132.4,95.2,150.4,126.0,28.2
496.5,130.4,94.1,151.2,125.2,28.9
497.0,129.0,94.7,150.4,124.7,28.1
497.5,127.8,94.5,146.5,123.0,26.3
498.0,127.2,91.8,144.1,121.1,26.7
498.5,124.9,92.7,142.4,120.0,25.2
499.0,122.3,91.1,141.6,118.3,25.5
499.5,121.2,90.9,138.6,116.9,24.1
500.0,119.8,89.9,138.3,116.0,24.4
500.5,115.8,89.2,136.8,113.9,23.8
501.0,115.1,87.1,135.5,112.6,24.3
501.5,113.9,86.7,133.1,111.2,23.3
502.0,111.4,86.6,129.2,109.0,21.4
502.5,108.7,85.8,129.7,108.1,22.0
503.0,109.6,84.6,129.1,107.8,22.3
503.5,106.0,84.8,124.1,104.9,19.7
504.0,103.1,84.2,124.7,104.0,20.3
504.5,101.5,83.4,121.5,102.1,19.1
505.0,103.5,82.4,120.3,102.1,19.0
505.5,101.2,83.5,118.3,101.0,17.4
506.0,99.4,81.9,115.3,98.9,16.7
506.5,96.3,82.3,115.5,98.1,16.7
507.0,96.9,81.8,114.0,97.6,16.1
507.5,94.2,82.1,112.5,96.3,15.3
508.0,94.3,81.1,109.7,95.0,14.3
508.5,91.5,80.2,108.5,93.4,14.3
509.0,92.4,79.5,108.5,93.5,14.5
509.5,90.5,78.0,106.0,91.5,14.1
510.0,91.7,79.0,105.3,92.0,13.2
510.5,90.1,78.7,105.2,91.3,13.3
511.0,87.1,77.0,102.5,88.8,12.8
511.5,88.1,76.6,101.5,88.7,12.5
512.0,86.2,76.7,101.4,88.1,12.4
512.5,86.0,76.5,98.8,87.1,11.2
513.0,86.2,75.9,96.6,86.2,10.4
513.5,84.0,77.1,95.8,85.6,9.4
514.0,82.9,74.5,94.5,84.0,10.0
514.5,80.8,73.6,94.2,82.9,10.5
515.0,80.4,72.9,91.5,81.6,9.3
515.5,78.6,73.1,91.2,81.0,9.3
516.0,77.1,72.8,90.2,80.0,9.1
516.5,76.4,72.0,87.2,78.5,7.8
517.0,75.7,71.9,88.8,78.8,8.9
517.5,74.3,71.1,86.0,77.1,7.8
518.0,73.9,70.6,82.2,75.6,6.0
518.5,72.6,70.1,83.3,75.3,7.0
519.0,72.9,68.9,82.6,74.8,7.1
519.5,71.4,68.5,80.8,73.5,6.4
520.0,70.6,70.5,79.4,73.5,5.1
520.5,68.3,68.9,78.7,71.9,5.8
521.0,67.7,68.3,78.2,71.4,5.9
521.5,66.9,68.6,77.4,71.0,5.6
522.0,66.3,67.7,75.9,70.0,5.2
522.5,65.3,67.8,75.2,69.4,5.2
523.0,64.5,67.4,74.8,68.9,5.3
523.5,63.6,66.4,74.1,68.0,5.4
524.0,62.8,66.5,71.6,67.0,4.4
524.5,61.4,65.7,71.1,66.1,4.8
525.0,61.1,65.7,69.2,65.3,4.1
525.5,59.1,65.4,68.0,64.2,4.6
526.0,59.2,64.3,67.5,63.7,4.2
526.5,58.7,63.5,66.9,63.0,4.1
527.0,57.5,62.9,64.4,61.6,3.6
527.5,56.8,61.8,63.3,60.6,3.4
528.0,55.8,61.7,62.5,60.0,3.7
528.5,54.7,61.4,61.3,59.2,3.8
529.0,54.2,61.4,60.8,58.8,4.0
529.5,54.0,60.3,59.8,58.0,3.5
530.0,53.1,60.1,60.2,57.8,4.0
530.5,53.3,59.1,57.7,56.7,3.1
531.0,51.7,59.1,57.0,55.9,3.8
531.5,52.1,58.3,55.6,55.3,3.1
532.0,51.2,58.7,54.8,54.9,3.7
532.5,50.7,57.0,54.0,53.9,3.2
533.0,50.2,56.8,52.8,53.2,3.3
533.5,49.0,56.9,52.3,52.7,4.0
534.0,49.1,57.9,51.3,52.8,4.6
534.5,49.0,55.8,50.0,51.6,3.7
535.0,49.3,56.4,48.8,51.5,4.3
535.5,48.6,55.7,48.9,51.1,4.0
536.0,48.5,54.3,48.0,50.3,3.5
536.5,47.2,54.6,48.5,50.1,3.9
537.0,46.9,53.5,46.1,48.8,4.1
537.5,47.4,53.7,45.4,48.8,4.3
538.0,47.3,53.0,45.5,48.6,3.9
538.5,45.7,52.1,44.3,47.4,4.2
539.0,45.4,52.6,43.5,47.2,4.8
539.5,45.5,51.9,42.6,46.7,4.8
540.0,45.0,51.8,42.3,46.3,4.9
540.5,44.3,51.7,41.3,45.7,5.3
541.0,44.3,51.2,41.2,45.6,5.2
541.5,43.2,50.4,40.0,44.5,5.3
542.0,43.4,51.3,39.6,44.8,6.0
542.5,43.0,50.3,39.2,44.2,5.6
543.0,42.4,48.9,38.8,43.4,5.1
543.5,42.1,49.3,38.8,43.4,5.4
544.0,41.2,48.8,38.3,42.8,5.5
544.5,40.4,48.3,37.8,42.2,5.5
545.0,40.0,48.6,37.3,42.0,5.9
545.5,40.2,47.2,37.2,41.5,5.1
546.0,39.2,46.6,37.3,41.0,4.9
546.5,39.0,46.0,36.7,40.6,4.8
547.0,38.4,45.8,36.7,40.3,4.8
547.5,38.1,44.6,36.2,39.6,4.4
548.0,37.6,43.6,35.6,38.9,4.1
548.5,37.6,43.8,34.8,38.7,4.6
549.0,37.6,43.0,34.4,38.3,4.4
549.5,36.8,42.6,34.1,37.8,4.4
550.0,36.6,42.3,33.6,37.5,4.4
550.5,36.1,41.5,32.8,36.8,4.4
551.0,35.7,41.2,32.8,36.6,4.2
551.5,35.8,40.7,32.5,36.3,4.1
552.0,34.7,39.8,31.9,35.5,4.0
552.5,35.2,39.5,31.8,35.5,3.8
553.0,34.4,39.2,31.2,34.9,4.1
553.5,34.2,39.9,30.9,35.0,4.6
554.0,34.2,38.2,30.3,34.2,4.0
554.5,33.7,38.3,30.2,34.1,4.0
555.0,33.0,37.9,30.0,33.6,4.0
555.5,33.3,37.8,29.5,33.6,4.2
556.0,32.8,37.9,30.4,33.7,3.8
556.5,32.6,37.7,29.0,33.1,4.4
557.0,32.8,37.6,29.3,33.3,4.2
557.5,32.7,37.4,28.9,33.0,4.3
558.0,32.3,38.1,29.1,33.2,4.5
558.5,31.9,38.0,28.9,32.9,4.6
559.0,32.2,38.7,28.8,33.2,5.0
559.5,31.6,38.0,28.4,32.7,4.9
560.0,31.4,37.9,28.3,32.5,4.9
560.5,31.6,38.1,27.9,32.6,5.2
561.0,30.3,38.0,27.8,32.0,5.3
561.5,30.1,38.2,27.6,32.0,5.5
562.0,29.7,37.3,27.3,31.4,5.2
562.5,29.1,37.4,27.1,31.2,5.5
563.0,29.2,36.9,26.8,31.0,5.2
563.5,28.1,36.7,26.7,30.5,5.4
564.0,28.2,36.6,26.6,30.5,5.4
564.5,27.7,35.8,26.5,30.0,5.1
565.0,27.6,35.5,26.7,29.9,4.9
565.5,27.4,34.2,26.0,29.2,4.4
566.0,27.7,34.6,26.7,29.7,4.3
566.5,26.9,34.6,26.6,29.4,4.6
567.0,26.9,33.9,26.4,29.1,4.2
567.5,26.8,33.6,26.4,29.0,4.0
568.0,26.2,32.8,26.4,28.5,3.7
568.5,26.5,32.2,26.5,28.4,3.3
569.0,25.9,31.9,26.0,27.9,3.4
569.5,25.6,30.9,25.9,27.5,3.0
570.0,25.7,30.6,25.9,27.4,2.7
570.5,25.5,29.6,25.6,26.9,2.3
571.0,25.2,29.3,26.0,26.8,2.2
571.5,24.7,28.7,25.1,26.2,2.2
572.0,25.0,28.4,25.1,26.2,1.9
572.5,24.5,27.9,25.2,25.8,1.8
573.0,24.5,27.5,25.1,25.7,1.5
573.5,24.6,27.1,24.5,25.4,1.4
574.0,24.3,26.6,24.2,25.0,1.4
574.5,23.9,26.8,24.4,25.1,1.6
575.0,23.9,26.1,23.8,24.6,1.3
575.5,23.8,26.4,23.7,24.6,1.6
576.0,23.5,26.3,23.9,24.6,1.5
576.5,22.9,26.6,23.9,24.5,1.9
577.0,22.6,26.7,23.8,24.4,2.1
577.5,22.4,26.6,23.3,24.1,2.2
578.0,21.5,26.8,23.6,24.0,2.7
578.5,21.1,27.8,23.3,24.1,3.4
579.0,20.5,27.4,23.6,23.8,3.4
579.5,20.1,27.8,23.5,23.8,3.9
580.0,20.0,28.0,23.4,23.8,4.0
580.5,19.9,28.0,23.2,23.7,4.0
581.0,20.1,28.0,22.8,23.6,4.0
581.5,20.3,28.1,23.3,23.9,4.0
582.0,20.3,28.0,23.2,23.8,3.9
582.5,20.6,27.7,23.1,23.8,3.6
583.0,20.5,27.4,23.2,23.7,3.5
583.5,21.2,27.5,22.8,23.8,3.3
584.0,21.4,27.2,22.7,23.8,3.0
584.5,21.2,27.1,22.9,23.8,3.0
585.0,22.1,26.8,22.5,23.8,2.6
585.5,22.4,26.1,22.9,23.8,2.0
586.0,23.0,26.1,22.5,23.9,2.0
586.5,22.9,25.6,22.6,23.7,1.6
587.0,23.0,25.3,22.2,23.5,1.6
587.5,23.2,25.1,22.2,23.5,1.4
588.0,23.5,24.5,22.4,23.5,1.0