File: 01_Data/Engineered_Flooring/Cone/Engineered_Flooring_HRRPUA_75.csv
Time after Ignition,Engineered_Flooring_R1,Engineered_Flooring_R2,Engineered_Flooring_R3,Mean,Std. Dev.
0.0,31.5,56.4,47.4,45.1,12.6
1.25,77.7,114.9,102.9,98.5,19.0
2.5,154.3,178.0,172.3,168.2,12.4
3.75,232.2,248.4,251.3,244.0,10.3
5.0,294.1,309.0,308.1,303.8,8.4
6.25,359.3,350.8,351.9,354.0,4.6
7.5,377.4,382.5,383.6,381.2,3.3
8.75,418.2,384.4,389.1,397.2,18.3
10.0,412.0,412.2,384.9,403.0,15.7
11.25,404.1,408.7,396.9,403.2,5.9
12.5,407.9,394.5,385.0,395.8,11.5
13.75,406.3,409.9,384.8,400.3,13.6
15.0,399.9,422.2,390.3,404.1,16.4
16.25,416.2,414.8,392.9,408.0,13.1
17.5,414.5,418.3,402.0,411.6,8.5
18.75,430.3,430.2,413.3,424.6,9.8
20.0,433.0,425.0,413.5,423.8,9.8
21.25,444.0,427.7,406.3,426.0,18.9
22.5,439.8,426.7,411.5,426.0,14.2
23.75,442.3,416.3,416.9,425.1,14.9
25.0,437.0,420.0,404.4,420.5,16.3
26.25,423.8,409.7,401.7,411.7,11.2
27.5,419.2,397.1,399.5,405.3,12.1
28.75,412.8,396.8,383.6,397.8,14.6
30.0,401.5,373.2,370.7,381.8,17.1
31.25,399.3,377.8,362.2,379.8,18.6
32.5,388.7,369.1,355.8,371.2,16.6
33.75,388.0,362.0,352.5,367.5,18.3
35.0,370.5,345.7,349.1,355.1,13.4
36.25,373.9,338.7,346.0,352.9,18.6
37.5,350.7,332.8,339.5,341.0,9.0
38.75,348.4,325.3,327.5,333.7,12.8
40.0,338.0,314.4,308.5,320.3,15.6
41.25,334.5,309.4,323.8,322.5,12.6
42.5,318.1,303.5,302.1,307.9,8.9
43.75,314.5,295.2,300.3,303.3,10.0
45.0,309.5,296.7,298.5,301.6,7.0
46.25,301.1,287.6,290.0,292.9,7.2
47.5,294.6,279.2,289.5,287.8,7.9
48.75,285.9,273.6,284.8,281.4,6.8
50.0,278.0,272.7,275.7,275.5,2.7
51.25,285.3,266.7,275.2,275.7,9.3
52.5,271.3,262.4,272.9,268.9,5.6
53.75,267.1,257.4,267.0,263.9,5.6
55.0,265.4,262.5,262.4,263.4,1.7
56.25,260.5,252.7,258.9,257.4,4.1
57.5,255.0,251.7,254.1,253.6,1.7
58.75,256.4,244.8,245.2,248.8,6.6
60.0,251.0,242.8,250.7,248.2,4.7
61.25,240.6,236.4,243.9,240.3,3.7
62.5,239.1,230.0,247.6,238.9,8.8
63.75,235.8,231.5,234.9,234.1,2.3
65.0,231.4,226.8,230.5,229.6,2.4
66.25,224.0,225.3,233.3,227.5,5.0
67.5,225.9,223.1,230.3,226.4,3.6
68.75,215.4,219.6,222.3,219.1,3.5
70.0,218.6,221.8,223.9,221.5,2.7
71.25,215.1,213.6,218.5,215.8,2.5
72.5,216.0,216.9,217.4,216.8,0.7
73.75,209.6,212.1,218.5,213.4,4.6
75.0,208.0,218.4,216.7,214.3,5.6
76.25,207.4,212.6,213.3,211.1,3.2
77.5,208.8,210.4,212.2,210.5,1.7
78.75,208.1,206.8,212.7,209.2,3.1
80.0,204.2,209.8,213.2,209.0,4.6
81.25,207.9,212.3,205.0,208.4,3.7
82.5,204.5,204.6,204.0,204.4,0.3
83.75,202.1,209.8,200.4,204.1,5.0
85.0,202.6,199.9,199.6,200.7,1.7
86.25,199.0,201.3,202.9,201.1,2.0
87.5,201.3,208.1,204.6,204.7,3.4
88.75,200.5,201.6,199.0,200.4,1.3
90.0,197.3,199.2,198.5,198.4,0.9
91.25,196.2,201.8,198.2,198.7,2.9
92.5,198.6,196.8,195.8,197.1,1.4
93.75,201.1,200.7,199.1,200.3,1.1
95.0,197.6,195.7,194.8,196.0,1.4
96.25,194.1,196.9,199.2,196.7,2.5
97.5,195.1,198.9,197.0,197.0,1.9
98.75,199.5,191.0,195.7,195.4,4.3
100.0,195.1,195.5,196.5,195.7,0.7
101.25,195.2,197.5,196.8,196.5,1.2
102.5,193.6,197.6,195.9,195.7,2.0
103.75,197.7,198.2,194.0,196.6,2.3
105.0,196.4,193.8,199.6,196.6,2.9
106.25,198.1,196.2,195.5,196.6,1.3
107.5,193.7,193.6,199.0,195.4,3.1
108.75,193.4,197.0,197.4,195.9,2.2
110.0,195.0,192.8,202.7,196.8,5.2
111.25,195.1,194.7,199.7,196.5,2.8
112.5,197.1,193.9,197.4,196.1,2.0
113.75,193.4,199.3,197.6,196.7,3.0
115.0,195.9,193.5,195.9,195.1,1.4
116.25,193.5,193.7,194.7,194.0,0.7
117.5,193.8,197.0,194.9,195.2,1.6
118.75,195.3,196.4,194.4,195.4,1.0
120.0,196.1,199.6,195.9,197.2,2.1
121.25,199.6,197.8,197.8,198.4,1.1
122.5,194.5,195.6,197.7,196.0,1.6
123.75,194.2,192.4,199.1,195.2,3.5
125.0,196.3,195.7,195.5,195.9,0.4
126.25,197.0,193.7,196.5,195.7,1.7
127.5,192.6,195.9,194.5,194.3,1.7
128.75,198.1,189.6,200.8,196.2,5.8
130.0,196.7,196.2,197.6,196.8,0.7
131.25,196.2,195.3,196.2,195.9,0.5
132.5,194.2,194.0,198.5,195.6,2.5
133.75,195.0,196.0,201.6,197.5,3.6
135.0,195.8,194.8,201.3,197.3,3.5
136.25,197.0,192.8,204.8,198.2,6.1
137.5,195.4,189.7,201.8,195.6,6.0
138.75,200.5,197.1,199.7,199.1,1.8
140.0,198.3,195.5,200.6,198.2,2.5
141.25,200.3,194.5,202.7,199.2,4.2
142.5,194.4,192.2,197.1,194.6,2.4
143.75,198.5,192.2,200.4,197.1,4.3
145.0,194.4,195.4,197.2,195.7,1.4
146.25,194.3,194.4,200.3,196.3,3.4
147.5,193.8,193.8,198.8,195.5,2.9
148.75,192.7,194.8,195.6,194.3,1.5
150.0,195.9,196.6,197.5,196.7,0.8
151.25,192.0,192.8,197.6,194.1,3.0
152.5,191.8,196.1,195.6,194.5,2.3
153.75,195.7,196.5,194.2,195.5,1.2
155.0,192.5,192.7,199.5,194.9,4.0
156.25,193.2,193.3,197.6,194.7,2.5
157.5,193.4,197.4,199.0,196.6,2.9
158.75,193.6,197.4,194.1,195.0,2.1
160.0,192.4,191.4,195.9,193.2,2.4
161.25,194.6,198.0,194.8,195.8,1.9
162.5,190.6,196.7,200.2,195.8,4.9
163.75,193.5,193.4,199.1,195.3,3.3
165.0,193.1,196.4,199.1,196.2,3.0
166.25,191.5,194.3,196.8,194.2,2.6
167.5,190.7,198.0,202.0,196.9,5.7
168.75,194.8,193.1,197.6,195.2,2.3
170.0,194.2,195.6,198.3,196.0,2.1
171.25,196.9,197.0,199.2,197.7,1.3
172.5,192.9,189.7,202.1,194.9,6.4
173.75,194.9,192.5,197.2,194.9,2.4
175.0,193.9,193.4,198.5,195.3,2.8
176.25,197.1,191.6,199.9,196.2,4.2
177.5,196.5,195.8,203.9,198.7,4.5
178.75,197.2,193.2,199.7,196.7,3.2
180.0,195.7,197.9,201.6,198.4,2.9
181.25,198.5,194.2,200.1,197.6,3.1
182.5,197.1,201.0,203.5,200.5,3.2
183.75,198.7,201.0,205.9,201.8,3.7
185.0,199.5,203.6,203.7,202.3,2.4
186.25,196.1,203.5,205.4,201.6,4.9
187.5,199.6,206.6,207.0,204.4,4.2
188.75,202.1,203.5,208.9,204.8,3.6
190.0,203.0,205.9,210.0,206.3,3.5
191.25,204.4,206.0,208.0,206.1,1.8
192.5,203.2,202.7,211.9,205.9,5.2
193.75,204.4,206.5,211.7,207.5,3.8
195.0,204.4,206.1,216.6,209.1,6.6
196.25,203.4,207.8,215.4,208.9,6.1
197.5,210.7,211.1,216.3,212.7,3.1
198.75,211.6,211.5,216.5,213.2,2.9
200.0,210.1,215.2,217.5,214.3,3.8
201.25,209.9,211.2,220.6,213.9,5.8
202.5,215.1,210.1,221.4,215.5,5.7
203.75,217.9,217.1,221.3,218.8,2.2
205.0,218.2,215.9,224.6,219.6,4.5
206.25,217.0,218.6,230.5,222.0,7.4
207.5,217.6,222.6,229.1,223.1,5.8
208.75,221.9,224.3,233.9,226.7,6.3
210.0,225.1,224.0,240.0,229.7,8.9
211.25,222.3,229.2,235.4,229.0,6.6
212.5,227.0,231.4,243.0,233.8,8.3
213.75,222.9,230.6,242.8,232.1,10.0
215.0,235.4,229.1,243.8,236.1,7.4
216.25,229.3,234.0,249.3,237.5,10.5
217.5,232.0,234.1,258.2,241.4,14.6
218.75,237.4,242.3,254.0,244.6,8.5
220.0,234.1,240.2,252.9,242.4,9.6
221.25,237.8,243.4,259.7,247.0,11.4
222.5,249.2,247.8,257.9,251.7,5.5
223.75,242.9,253.1,258.3,251.4,7.9
225.0,244.5,251.1,261.9,252.5,8.8
226.25,251.3,250.6,271.2,257.7,11.7
227.5,251.3,256.4,268.9,258.8,9.1
228.75,254.8,262.5,272.6,263.3,9.0
230.0,260.2,267.8,276.3,268.1,8.0
231.25,263.2,267.9,281.0,270.7,9.2
232.5,264.0,270.2,280.9,271.7,8.5
233.75,273.1,270.2,278.9,274.1,4.4
235.0,267.7,276.1,286.8,276.9,9.6
236.25,274.5,280.7,294.9,283.4,10.5
237.5,284.3,286.2,294.8,288.4,5.6
238.75,286.6,286.1,296.2,289.6,5.7
240.0,280.3,290.1,294.3,288.2,7.2
241.25,287.4,298.4,302.2,296.0,7.7
242.5,293.3,295.1,300.1,296.2,3.5
243.75,291.3,295.7,308.2,298.4,8.8
245.0,298.5,304.8,308.5,303.9,5.0
246.25,297.3,301.8,311.8,303.6,7.4
247.5,303.1,314.7,303.9,307.2,6.5
248.75,306.1,318.1,315.4,313.2,6.3
250.0,311.8,316.7,318.3,315.6,3.4
251.25,317.8,321.5,328.6,322.6,5.5
252.5,324.2,332.5,325.1,327.3,4.5
253.75,325.1,343.3,327.0,331.8,10.0
255.0,339.5,337.0,326.4,334.3,7.0
256.25,341.1,347.7,332.6,340.5,7.6
257.5,339.4,342.5,338.4,340.1,2.2
258.75,345.1,356.4,349.9,350.4,5.6
260.0,352.8,356.2,349.0,352.6,3.6
261.25,353.8,364.3,343.0,353.7,10.6
262.5,367.6,364.9,356.8,363.1,5.7
263.75,361.3,365.8,360.6,362.6,2.8
265.0,362.1,380.7,358.2,367.0,12.0
266.25,371.1,384.4,363.3,372.9,10.7
267.5,383.2,389.2,370.3,380.9,9.6
268.75,389.0,389.9,383.5,387.5,3.5
270.0,396.4,408.1,394.4,399.6,7.4
271.25,405.3,399.0,406.6,403.6,4.1
272.5,410.1,421.7,405.4,412.4,8.4
273.75,414.1,426.0,420.5,420.2,6.0
275.0,411.9,435.9,417.3,421.7,12.6
276.25,423.0,429.2,423.0,425.1,3.6
277.5,420.3,442.4,421.1,427.9,12.5
278.75,433.0,449.9,410.0,431.0,20.0
280.0,426.9,436.2,398.3,420.5,19.7
281.25,417.7,434.2,395.1,415.7,19.6
282.5,425.4,438.2,389.9,417.8,25.0
283.75,424.2,430.6,373.2,409.3,31.5
285.0,417.0,421.3,371.5,403.2,27.6
286.25,406.6,418.8,361.1,395.5,30.4
287.5,401.1,400.1,345.2,382.1,32.0
288.75,401.2,391.9,348.9,380.7,27.9
290.0,393.7,383.9,332.7,370.1,32.7
291.25,384.6,373.0,327.0,361.5,30.5
292.5,380.4,371.1,324.5,358.7,30.0
293.75,362.7,359.8,317.1,346.6,25.5
295.0,364.7,362.9,316.8,348.1,27.2
296.25,358.9,344.9,301.5,335.1,29.9
297.5,354.1,328.3,296.2,326.2,29.0
298.75,343.3,321.0,279.4,314.5,32.4
300.0,341.4,303.6,272.0,305.7,34.7
301.25,325.0,291.2,255.0,290.4,35.0
302.5,305.6,273.4,252.8,277.3,26.6
303.75,297.1,260.6,243.9,267.2,27.2
305.0,280.2,241.9,230.5,250.9,26.0
306.25,263.3,231.5,219.5,238.1,22.6
307.5,245.9,213.2,209.6,222.9,20.0
308.75,234.6,199.5,200.5,211.5,20.0
310.0,222.1,183.5,187.6,197.7,21.2
311.25,209.7,162.0,179.9,183.9,24.1
312.5,201.7,150.2,169.6,173.8,26.0
313.75,189.4,134.1,158.7,160.7,27.7
315.0,168.8,119.4,144.5,144.2,24.7
316.25,153.3,107.9,132.3,131.2,22.8
317.5,138.9,99.7,120.4,119.7,19.6
318.75,126.6,92.0,111.3,110.0,17.3
320.0,112.9,84.0,101.1,99.3,14.5
321.25,103.8,78.0,90.2,90.7,12.9
322.5,94.3,74.0,83.3,83.9,10.2
323.75,86.7,71.9,76.9,78.5,7.5
325.0,81.7,66.5,71.8,73.3,7.7
326.25,75.8,64.2,68.8,69.6,5.9
327.5,72.7,62.0,64.6,66.5,5.6
328.75,69.2,61.0,62.1,64.1,4.4
330.0,67.3,60.6,60.2,62.7,4.0
331.25,63.8,59.6,58.2,60.5,2.9
332.5,63.0,58.4,56.7,59.3,3.3
333.75,62.6,57.1,55.0,58.2,3.9
335.0,60.4,57.4,55.0,57.6,2.7
336.25,59.7,55.3,54.6,56.5,2.8
337.5,58.5,55.0,55.0,56.2,2.0
338.75,56.9,53.8,54.2,55.0,1.7
340.0,55.3,53.3,52.8,53.8,1.3
341.25,54.7,52.8,52.2,53.2,1.3
342.5,53.1,50.9,52.1,52.0,1.1
343.75,53.5,51.0,51.3,52.0,1.4
345.0,52.7,50.9,50.4,51.3,1.2
346.25,52.5,49.7,50.8,51.0,1.4
347.5,52.4,49.3,49.4,50.3,1.7
348.75,51.1,48.8,49.5,49.8,1.2
350.0,50.5,47.8,49.3,49.2,1.4
351.25,50.7,48.2,48.4,49.1,1.4
352.5,50.2,48.1,47.6,48.6,1.4
353.75,49.4,47.6,46.7,47.9,1.3
355.0,49.6,46.9,47.2,47.9,1.5
356.25,49.4,46.6,47.1,47.7,1.5
357.5,48.4,46.2,46.7,47.1,1.2
358.75,47.3,45.8,46.7,46.6,0.8
360.0,47.9,44.9,45.9,46.2,1.5
361.25,47.6,45.3,45.8,46.3,1.2
362.5,47.7,44.6,45.2,45.8,1.6
363.75,47.6,44.4,46.2,46.0,1.6
365.0,48.5,43.5,46.0,46.0,2.5
366.25,48.6,42.5,45.6,45.6,3.0
367.5,49.9,42.2,44.7,45.6,3.9
368.75,49.1,41.5,44.4,45.0,3.8
370.0,49.2,41.7,43.8,44.9,3.8
371.25,49.0,41.5,44.7,45.1,3.8
372.5,48.4,41.3,43.8,44.5,3.6
373.75,48.9,41.6,43.3,44.6,3.8
375.0,48.6,41.4,43.3,44.4,3.7
376.25,48.7,41.8,43.4,44.6,3.6
377.5,48.0,43.5,43.9,45.1,2.5
378.75,47.9,43.4,43.5,45.0,2.6
380.0,47.0,43.8,43.6,44.8,1.9
381.25,46.6,44.3,42.8,44.5,1.9
382.5,46.4,44.1,43.2,44.6,1.6
383.75,45.5,43.1,43.1,43.9,1.4
385.0,44.1,43.3,43.4,43.6,0.4
386.25,44.7,43.3,43.2,43.7,0.8
387.5,43.0,42.6,43.2,43.0,0.3
388.75,42.3,41.7,43.2,42.4,0.8
390.0,42.0,41.0,43.0,42.0,1.0
391.25,41.1,40.8,42.6,41.5,1.0
392.5,41.8,40.2,43.4,41.8,1.6
393.75,41.5,40.1,43.1,41.6,1.5
395.0,41.2,40.2,43.3,41.5,1.6
396.25,41.0,40.0,42.8,41.3,1.4
397.5,40.6,39.3,43.2,41.0,2.0
398.75,40.9,40.5,42.7,41.4,1.2
400.0,40.3,40.1,42.4,40.9,1.3
401.25,40.1,40.2,43.1,41.1,1.7
402.5,41.3,40.6,42.0,41.3,0.7
403.75,41.7,40.9,42.8,41.8,1.0
405.0,41.8,40.4,42.8,41.7,1.2
406.25,41.1,40.3,41.9,41.1,0.8
407.5,41.1,39.7,42.5,41.1,1.4
408.75,40.5,40.0,42.3,40.9,1.2
410.0,39.3,40.0,41.5,40.3,1.1
411.25,40.1,39.6,41.2,40.3,0.8
412.5,40.4,39.9,41.4,40.6,0.8
413.75,40.5,40.0,41.2,40.6,0.6
415.0,40.5,39.5,41.0,40.3,0.7
416.25,39.9,40.5,41.3,40.5,0.7
417.5,40.3,40.9,41.3,40.8,0.5
418.75,39.7,40.9,40.8,40.5,0.7
420.0,39.2,40.7,40.7,40.2,0.9
421.25,39.0,40.4,41.6,40.3,1.3
422.5,39.1,41.2,41.3,40.5,1.2
423.75,39.9,42.0,42.4,41.4,1.3
425.0,39.7,41.8,41.9,41.1,1.2
426.25,39.6,41.6,41.7,41.0,1.2
427.5,40.0,40.7,41.8,40.8,0.9
428.75,40.9,40.9,41.7,41.2,0.4
430.0,39.4,41.1,41.4,40.6,1.1
431.25,39.7,40.8,42.0,40.8,1.2
432.5,39.4,40.0,42.1,40.5,1.5
433.75,39.1,39.6,41.9,40.2,1.5
435.0,39.0,39.5,42.4,40.3,1.9
436.25,38.4,39.4,43.0,40.3,2.4
437.5,39.1,39.8,42.4,40.4,1.8
438.75,39.6,39.8,42.6,40.7,1.7
440.0,39.9,39.3,42.4,40.5,1.6
441.25,40.0,39.0,41.9,40.3,1.5
442.5,39.7,38.6,41.7,40.0,1.6
443.75,40.0,38.0,41.6,39.9,1.8
445.0,40.4,38.3,42.1,40.3,1.9
446.25,40.2,38.3,41.9,40.1,1.8
447.5,40.3,38.6,42.0,40.3,1.7
448.75,40.5,37.7,42.2,40.1,2.3
450.0,40.3,38.5,42.0,40.3,1.7
451.25,40.1,38.0,42.1,40.1,2.1
452.5,40.7,38.3,41.9,40.3,1.9
453.75,40.2,37.9,42.0,40.0,2.1
455.0,39.3,37.7,42.2,39.7,2.3
456.25,40.3,37.4,42.6,40.1,2.6
457.5,39.5,37.8,42.7,40.0,2.5
458.75,39.0,37.4,41.8,39.4,2.2
460.0,39.3,37.7,42.1,39.7,2.3
461.25,39.8,37.2,42.3,39.8,2.5
462.5,39.0,37.7,41.8,39.5,2.1
463.75,38.5,37.4,42.4,39.4,2.6
465.0,38.0,37.3,41.8,39.0,2.4
466.25,38.2,37.4,41.7,39.1,2.3
467.5,38.6,37.8,42.1,39.5,2.3
468.75,39.0,37.6,42.3,39.6,2.4
470.0,39.2,37.8,42.1,39.7,2.2
471.25,39.5,37.6,42.9,40.0,2.7
472.5,38.9,37.8,42.4,39.7,2.4
473.75,38.5,37.7,42.6,39.6,2.6
475.0,38.5,38.0,42.2,39.5,2.3
476.25,38.2,37.5,41.7,39.1,2.3
477.5,38.5,38.0,41.6,39.4,1.9
478.75,38.5,37.8,41.5,39.3,1.9
480.0,37.9,37.8,42.4,39.4,2.6
481.25,38.3,37.7,43.2,39.7,3.0
482.5,38.0,37.2,42.7,39.3,2.9
483.75,38.5,38.2,42.9,39.9,2.6
485.0,37.7,38.1,42.7,39.5,2.8
486.25,38.0,37.9,43.1,39.7,3.0
487.5,37.6,37.5,43.3,39.5,3.3
488.75,38.0,37.6,42.5,39.4,2.7
490.0,38.3,38.0,42.9,39.7,2.8
491.25,38.3,37.7,43.2,39.7,3.0
492.5,38.3,37.6,43.3,39.7,3.1
493.75,38.3,37.6,43.2,39.7,3.0
495.0,38.5,37.6,43.6,39.9,3.3
496.25,38.5,37.8,42.8,39.7,2.7
497.5,38.9,37.9,43.4,40.0,3.0
498.75,38.0,38.3,43.1,39.8,2.8
500.0,37.8,37.8,42.2,39.3,2.5
501.25,37.0,37.7,42.2,39.0,2.8
502.5,36.7,37.1,42.7,38.8,3.4
503.75,36.9,37.4,42.2,38.8,3.0
505.0,37.4,37.4,42.2,39.0,2.8
506.25,37.5,37.7,41.6,38.9,2.3
507.5,37.7,37.6,42.1,39.1,2.6
508.75,38.3,36.8,43.0,39.4,3.2
510.0,38.1,37.3,42.7,39.4,2.9
511.25,38.4,37.2,42.4,39.3,2.7
512.5,38.4,36.4,42.3,39.0,3.0
513.75,38.1,36.0,41.9,38.7,3.0
515.0,38.3,35.5,41.9,38.5,3.2
516.25,37.9,35.4,42.1,38.4,3.4
517.5,37.8,35.1,42.6,38.5,3.8
518.75,37.3,34.4,42.5,38.1,4.1
520.0,37.0,34.9,42.9,38.3,4.1
521.25,37.2,35.1,44.6,39.0,5.0
522.5,37.3,34.7,44.2,38.7,4.9
523.75,38.0,34.3,44.0,38.8,4.9
525.0,38.6,34.2,43.7,38.8,4.8
526.25,38.3,34.6,43.1,38.7,4.3
527.5,38.6,34.1,42.9,38.5,4.4
528.75,38.4,34.0,42.9,38.4,4.4
530.0,38.8,33.8,42.9,38.5,4.6
531.25,38.6,33.9,42.2,38.2,4.2
532.5,39.0,33.8,42.7,38.5,4.5
533.75,39.6,33.8,42.0,38.5,4.2
535.0,39.7,34.7,43.1,39.2,4.2
536.25,39.7,34.8,42.9,39.1,4.1
537.5,39.8,35.3,42.6,39.3,3.7
538.75,39.4,35.3,42.1,39.0,3.4
540.0,39.7,35.3,41.9,38.9,3.4
541.25,39.2,35.0,42.4,38.9,3.7
542.5,38.6,35.9,41.4,38.7,2.7
543.75,37.9,36.0,41.6,38.5,2.9
545.0,38.3,36.1,42.1,38.9,3.0
546.25,37.5,35.7,42.5,38.6,3.5
547.5,37.4,36.0,41.9,38.5,3.1
548.75,37.4,35.9,42.3,38.5,3.3
550.0,36.6,36.4,42.5,38.5,3.5
551.25,36.6,35.8,42.3,38.2,3.5
552.5,37.7,35.9,42.0,38.5,3.1
553.75,37.4,36.2,42.6,38.8,3.4
555.0,37.8,35.7,42.7,38.7,3.6
556.25,37.8,35.7,44.1,39.2,4.3
557.5,38.1,35.6,44.2,39.3,4.4
558.75,37.9,35.5,43.7,39.0,4.2
560.0,37.7,34.9,44.0,38.9,4.7
561.25,37.5,34.9,44.2,38.9,4.8
562.5,37.3,35.1,43.7,38.7,4.5
563.75,37.1,35.3,42.9,38.4,4.0
565.0,37.6,35.0,42.9,38.5,4.0
566.25,38.2,35.4,42.5,38.7,3.6
567.5,38.1,35.3,42.4,38.6,3.6
568.75,38.2,35.7,42.0,38.6,3.2
570.0,38.7,36.3,41.6,38.9,2.7
571.25,38.0,35.8,41.9,38.6,3.1
572.5,38.2,36.0,41.8,38.6,2.9
573.75,38.4,36.2,42.1,38.9,3.0
575.0,38.4,35.7,41.3,38.5,2.8
576.25,38.7,36.0,41.3,38.7,2.6
577.5,38.0,35.9,41.5,38.5,2.9
578.75,37.6,35.2,42.0,38.3,3.4
580.0,37.0,35.2,41.9,38.0,3.5
581.25,36.5,35.1,41.9,37.8,3.6
582.5,36.4,35.4,41.5,37.8,3.3
583.75,37.0,35.9,41.2,38.1,2.8
585.0,37.1,36.0,40.9,38.0,2.6
586.25,37.1,36.4,41.9,38.5,3.0
587.5,36.6,36.7,41.0,38.1,2.5
588.75,37.2,36.2,40.7,38.0,2.3
590.0,37.4,36.0,40.7,38.0,2.5
591.25,36.9,35.6,40.6,37.7,2.6
592.5,37.9,35.9,40.7,38.2,2.4
593.75,38.0,35.9,40.0,38.0,2.1
595.0,38.0,35.5,40.5,38.0,2.5
596.25,38.5,36.1,40.7,38.5,2.3
597.5,38.4,36.4,40.5,38.4,2.1
598.75,38.6,36.0,40.7,38.4,2.4
600.0,38.9,36.2,40.8,38.7,2.3
601.25,38.8,36.0,41.1,38.6,2.6
602.5,38.4,35.9,40.4,38.2,2.2
603.75,37.9,36.4,39.8,38.0,1.7
605.0,38.1,35.9,40.6,38.2,2.3
606.25,38.4,35.3,39.9,37.8,2.4
607.5,38.0,35.5,40.0,37.9,2.3
608.75,37.8,35.3,40.0,37.7,2.4
610.0,37.4,35.4,39.7,37.5,2.2
611.25,38.1,34.8,39.4,37.4,2.4
612.5,37.3,35.4,40.3,37.7,2.4
613.75,37.1,34.6,39.6,37.1,2.5
615.0,37.5,34.9,39.8,37.4,2.4
616.25,37.7,35.2,39.8,37.6,2.3
617.5,37.8,35.9,39.3,37.7,1.7
618.75,38.3,35.6,39.5,37.8,2.0
620.0,38.1,35.5,39.4,37.7,2.0
621.25,38.8,35.0,39.2,37.7,2.3
622.5,39.0,35.2,40.4,38.2,2.7
623.75,39.0,34.9,40.7,38.2,3.0
625.0,39.5,35.1,40.1,38.2,2.7
626.25,39.3,35.0,39.6,38.0,2.6
627.5,39.3,35.5,39.6,38.1,2.3
628.75,39.1,36.1,40.0,38.4,2.1
630.0,39.5,35.3,40.7,38.5,2.8
631.25,39.2,35.6,40.2,38.4,2.4
632.5,39.7,35.4,40.8,38.6,2.9
633.75,39.6,35.2,39.9,38.2,2.6
635.0,39.2,35.6,39.9,38.2,2.3
636.25,38.3,35.2,40.5,38.0,2.7
637.5,37.9,35.7,40.7,38.1,2.5
638.75,37.6,35.3,40.3,37.7,2.5
640.0,37.2,35.5,40.4,37.7,2.5
641.25,37.2,35.3,40.7,37.7,2.7
642.5,37.1,35.7,39.9,37.6,2.1
643.75,36.6,35.0,40.4,37.4,2.8
645.0,37.0,35.4,39.8,37.4,2.3
646.25,36.7,35.7,39.4,37.3,1.9
647.5,37.4,35.2,40.2,37.6,2.5
648.75,37.2,35.3,41.0,37.8,2.9
650.0,37.8,35.5,39.9,37.7,2.2
651.25,37.6,35.2,40.4,37.7,2.6
652.5,38.0,35.7,40.3,38.0,2.3
653.75,37.5,34.6,39.8,37.3,2.6
655.0,38.3,34.7,40.0,37.7,2.7
656.25,38.9,34.9,40.2,38.0,2.7
657.5,38.7,34.9,40.4,38.0,2.8
658.75,38.6,34.9,40.6,38.1,2.9
660.0,38.3,34.7,39.7,37.5,2.6
661.25,38.7,34.7,39.6,37.7,2.6
662.5,38.4,34.1,39.3,37.3,2.8
663.75,38.6,34.2,38.5,37.1,2.5
665.0,38.7,34.0,39.2,37.3,2.9
666.25,38.7,33.7,38.8,37.1,2.9
667.5,38.9,33.8,39.3,37.3,3.1
668.75,38.6,33.8,39.0,37.1,2.9
670.0,38.2,33.2,38.5,36.6,3.0
671.25,38.3,33.5,38.5,36.7,2.8
672.5,38.5,33.1,38.9,36.8,3.2
673.75,38.9,33.4,38.4,36.9,3.1
675.0,38.4,34.4,38.5,37.1,2.3
676.25,38.5,34.3,39.3,37.4,2.7
677.5,38.4,34.6,39.0,37.3,2.4
678.75,38.5,35.1,39.5,37.7,2.3
680.0,38.8,35.6,38.2,37.5,1.7
681.25,38.8,35.6,39.2,37.8,1.9
682.5,39.1,36.0,38.4,37.8,1.6
683.75,37.9,35.9,39.3,37.7,1.7
685.0,38.0,35.8,40.1,37.9,2.1
686.25,37.8,35.8,39.9,37.8,2.0
687.5,37.2,35.9,38.9,37.3,1.5
688.75,37.7,36.5,39.8,38.0,1.7
690.0,37.5,36.3,40.0,38.0,1.9
691.25,38.1,36.0,39.9,38.0,1.9
692.5,38.7,36.8,39.9,38.5,1.5
693.75,39.5,36.1,39.9,38.5,2.1
695.0,40.0,36.4,39.9,38.7,2.0
696.25,39.2,35.5,39.4,38.1,2.2
697.5,39.2,35.0,40.4,38.2,2.8
698.75,38.9,34.8,39.8,37.8,2.7
700.0,38.8,34.2,40.0,37.7,3.1
701.25,38.4,34.2,39.7,37.4,2.9
702.5,38.1,34.2,40.1,37.5,3.0
703.75,38.7,33.6,40.4,37.6,3.5
705.0,38.0,34.1,40.7,37.6,3.3
706.25,37.7,34.3,40.4,37.5,3.0
707.5,39.0,34.6,40.6,38.1,3.1
708.75,39.6,34.4,40.4,38.2,3.3
710.0,38.8,34.2,39.9,37.6,3.0
711.25,39.7,34.7,39.3,37.9,2.8
712.5,39.2,33.6,39.9,37.5,3.4
713.75,38.9,33.6,39.0,37.2,3.1
715.0,38.8,33.4,39.5,37.2,3.4
716.25,39.0,33.5,40.3,37.6,3.6
717.5,39.0,33.8,40.4,37.7,3.5
718.75,38.6,33.8,40.4,37.6,3.4
720.0,38.6,33.9,39.8,37.4,3.1
721.25,38.8,34.2,40.2,37.7,3.1
722.5,38.0,34.6,39.0,37.2,2.3
723.75,38.0,34.5,39.1,37.2,2.4
725.0,37.7,34.1,38.4,36.8,2.3
726.25,37.9,34.5,38.5,37.0,2.2
727.5,37.6,34.1,38.7,36.8,2.4
728.75,37.7,33.5,39.5,36.9,3.0
730.0,38.1,33.9,38.6,36.8,2.6
731.25,37.8,33.9,37.8,36.5,2.2
732.5,37.5,33.5,38.3,36.4,2.6
733.75,37.2,33.9,38.2,36.4,2.3
735.0,37.9,33.8,38.1,36.6,2.4
736.25,37.9,33.3,38.0,36.4,2.7
737.5,37.6,33.4,39.0,36.7,2.9
738.75,37.4,33.2,39.2,36.6,3.1
740.0,37.7,32.8,38.7,36.4,3.1
741.25,37.6,32.8,38.6,36.4,3.1
742.5,37.7,33.0,38.2,36.3,2.9
743.75,38.1,33.2,38.1,36.5,2.8
745.0,38.6,33.4,38.2,36.7,2.9
746.25,38.2,33.8,38.0,36.6,2.5
747.5,38.3,33.1,36.8,36.1,2.7
748.75,38.6,33.6,37.4,36.6,2.6
750.0,38.6,33.9,37.0,36.5,2.4
751.25,38.6,33.9,37.1,36.6,2.4
752.5,39.6,33.8,36.8,36.7,2.9
753.75,39.4,34.3,37.9,37.2,2.6
755.0,39.5,34.4,38.6,37.5,2.7
756.25,39.8,35.2,39.5,38.1,2.6
757.5,39.1,35.0,38.2,37.4,2.1
758.75,39.5,35.0,38.4,37.7,2.4
760.0,39.2,34.0,38.7,37.3,2.8
761.25,39.9,34.3,38.6,37.6,2.9
762.5,40.2,34.0,38.7,37.6,3.2
763.75,39.6,33.8,38.5,37.3,3.1
765.0,39.7,33.5,39.1,37.4,3.5
766.25,39.1,33.1,38.6,36.9,3.3
767.5,40.2,32.8,39.3,37.4,4.0
768.75,38.9,32.5,39.7,37.1,4.0
770.0,39.4,32.8,39.8,37.3,3.9
771.25,38.8,33.0,39.2,37.0,3.5
772.5,39.1,33.1,39.2,37.1,3.5
773.75,38.9,32.8,39.6,37.1,3.7
775.0,38.3,33.3,39.1,36.9,3.1
776.25,37.6,32.8,38.5,36.3,3.1
777.5,37.7,32.3,39.0,36.3,3.5
778.75,37.6,32.1,39.4,36.3,3.8
780.0,37.1,32.2,39.5,36.3,3.8
781.25,37.6,32.6,38.8,36.3,3.3
782.5,37.3,32.0,38.4,35.9,3.4
783.75,36.9,32.3,38.1,35.8,3.1
785.0,37.0,32.6,37.9,35.8,2.8
786.25,36.9,31.9,38.0,35.6,3.3
787.5,36.5,32.2,38.2,35.6,3.1
788.75,36.3,32.2,38.3,35.6,3.1
790.0,36.5,32.2,37.3,35.3,2.7
791.25,36.6,32.3,38.6,35.8,3.2
792.5,36.7,32.6,38.5,35.9,3.0
793.75,36.5,32.8,38.2,35.8,2.8
795.0,37.1,32.9,38.0,36.0,2.7
796.25,36.8,32.5,37.6,35.6,2.7
797.5,37.8,33.6,38.6,36.6,2.7
798.75,37.4,32.9,39.0,36.4,3.2
800.0,38.0,32.6,38.5,36.4,3.2
801.25,37.7,32.4,38.5,36.2,3.3
802.5,38.0,32.0,38.4,36.1,3.6
803.75,37.6,32.0,38.1,35.9,3.4
805.0,37.1,31.8,38.0,35.6,3.3
806.25,37.8,31.8,37.4,35.6,3.4
807.5,38.2,32.0,36.9,35.7,3.3
808.75,37.8,32.0,37.0,35.6,3.1
810.0,38.0,31.5,36.7,35.4,3.4
811.25,37.1,31.9,37.2,35.4,3.0
812.5,36.6,32.3,38.4,35.8,3.1
813.75,37.4,32.2,37.9,35.8,3.2
815.0,37.1,32.2,37.5,35.6,2.9
816.25,37.5,32.6,37.4,35.9,2.8
817.5,36.9,32.3,38.0,35.8,3.0
818.75,38.0,32.9,37.8,36.2,2.9
820.0,38.4,32.3,37.8,36.2,3.4
821.25,38.8,31.9,37.8,36.2,3.7
822.5,38.7,31.9,37.8,36.1,3.7
823.75,38.3,31.9,37.3,35.8,3.5
825.0,37.7,31.8,37.3,35.6,3.3
826.25,37.7,31.6,36.7,35.3,3.3
827.5,36.9,31.7,37.1,35.3,3.1
828.75,36.9,32.1,37.2,35.4,2.8
830.0,37.0,32.4,36.6,35.3,2.6
831.25,36.5,32.6,37.0,35.4,2.4
832.5,36.6,31.9,37.4,35.3,3.0
833.75,36.2,32.1,37.9,35.4,3.0
835.0,35.9,31.4,37.4,34.9,3.1
836.25,35.9,31.4,37.6,35.0,3.2
837.5,35.3,31.2,37.4,34.6,3.2
838.75,35.8,30.7,36.7,34.4,3.2
840.0,35.3,31.1,36.4,34.2,2.8
841.25,35.7,31.3,36.3,34.4,2.7
842.5,36.2,31.0,36.6,34.6,3.1
843.75,36.2,31.5,36.9,34.9,3.0
845.0,36.5,31.5,36.9,35.0,3.0
846.25,36.7,31.3,37.3,35.1,3.3
847.5,35.9,31.6,37.1,34.9,2.9
848.75,35.9,31.0,37.0,34.6,3.2
850.0,35.9,30.8,37.3,34.7,3.4
851.25,36.2,31.4,36.8,34.8,3.0
852.5,36.4,31.2,36.4,34.7,3.0
853.75,36.2,31.5,36.4,34.7,2.8
855.0,35.9,31.2,36.3,34.5,2.8
856.25,36.6,31.6,36.8,35.0,2.9
857.5,36.3,31.7,37.1,35.0,2.9
858.75,35.8,31.5,37.0,34.8,2.9
860.0,36.2,31.7,37.1,35.0,2.9
861.25,35.9,31.4,37.2,34.9,3.0
862.5,36.1,31.5,36.8,34.8,2.9
863.75,36.3,31.4,37.3,35.0,3.1
865.0,36.8,31.5,38.1,35.5,3.5
866.25,36.9,31.5,37.9,35.4,3.4
867.5,36.7,31.7,37.0,35.1,3.0
868.75,36.3,31.6,37.0,35.0,2.9
870.0,37.1,31.2,37.4,35.2,3.5
871.25,37.6,31.5,38.4,35.8,3.7
872.5,37.3,31.3,37.7,35.4,3.6
873.75,37.4,31.1,37.5,35.3,3.7
875.0,37.0,31.4,37.3,35.3,3.3
876.25,37.7,31.1,37.7,35.5,3.8
877.5,37.5,31.1,37.6,35.4,3.8
878.75,37.1,32.0,37.6,35.5,3.1
880.0,37.6,31.2,36.7,35.2,3.5
881.25,36.9,31.7,36.7,35.1,2.9
882.5,36.6,31.3,37.0,35.0,3.1
883.75,36.0,31.9,37.2,35.0,2.8
885.0,36.3,31.0,37.3,34.8,3.4
886.25,36.4,31.7,37.3,35.1,3.0
887.5,35.3,30.8,37.7,34.6,3.5
888.75,35.9,31.8,37.2,35.0,2.8
890.0,35.5,31.5,37.5,34.8,3.0
891.25,35.6,31.2,37.1,34.7,3.1
892.5,35.3,31.1,37.8,34.8,3.4
893.75,35.1,31.0,36.8,34.3,3.0
895.0,35.3,31.0,37.2,34.5,3.2
896.25,35.3,30.6,37.4,34.4,3.5
897.5,35.4,30.8,37.7,34.6,3.5
898.75,35.4,30.7,37.8,34.7,3.6
900.0,35.0,30.9,38.1,34.7,3.6
901.25,34.8,30.9,37.8,34.5,3.5
902.5,35.1,30.5,37.9,34.5,3.7
903.75,34.8,29.9,38.3,34.4,4.2
905.0,35.2,29.7,38.1,34.3,4.3
906.25,35.4,30.3,37.4,34.3,3.6
907.5,35.3,30.2,37.5,34.3,3.7
908.75,35.5,30.5,36.8,34.3,3.3
910.0,34.8,30.6,37.1,34.1,3.3
911.25,34.9,30.6,36.4,34.0,3.0
912.5,34.2,30.6,36.8,33.8,3.1
913.75,34.7,30.8,37.1,34.2,3.2
915.0,34.0,30.5,36.6,33.7,3.0
916.25,34.0,30.2,37.0,33.7,3.4
917.5,33.9,30.3,36.6,33.6,3.2
918.75,33.9,30.4,36.2,33.5,2.9
920.0,34.2,30.9,35.4,33.5,2.3
921.25,33.6,31.1,35.0,33.3,2.0
922.5,34.3,31.1,34.3,33.2,1.8
923.75,34.8,31.3,34.5,33.5,1.9
925.0,34.8,31.2,34.3,33.4,2.0
926.25,35.1,30.9,35.0,33.6,2.4
927.5,35.2,30.8,35.5,33.8,2.7
928.75,34.9,30.9,35.6,33.8,2.5
930.0,34.9,30.4,35.9,33.8,3.0
931.25,34.6,30.5,35.8,33.6,2.8
932.5,34.8,30.4,35.9,33.7,2.9
933.75,34.3,30.3,35.7,33.4,2.8
935.0,34.5,30.2,35.4,33.4,2.7
936.25,34.8,30.0,35.6,33.5,3.0
937.5,34.3,30.2,35.6,33.4,2.8
938.75,34.6,30.7,36.1,33.8,2.8
940.0,34.3,30.5,36.1,33.6,2.9
941.25,34.7,30.2,36.0,33.6,3.1
942.5,34.3,31.3,36.3,34.0,2.5
943.75,34.6,31.1,35.9,33.9,2.5
945.0,34.5,30.7,35.8,33.7,2.6
946.25,34.5,30.9,35.5,33.6,2.4
947.5,34.9,31.1,35.3,33.8,2.3
948.75,36.0,31.3,35.1,34.1,2.5
950.0,35.7,31.6,35.2,34.2,2.2
951.25,36.0,31.3,35.7,34.3,2.7
952.5,35.6,30.2,35.0,33.6,2.9
953.75,35.9,30.2,35.0,33.7,3.0
955.0,36.0,30.1,35.2,33.7,3.2
956.25,36.0,30.0,34.7,33.6,3.1
957.5,36.3,29.9,34.3,33.5,3.3
958.75,36.3,29.7,34.3,33.4,3.4
960.0,35.8,29.6,34.7,33.4,3.3
961.25,35.4,30.1,34.7,33.4,2.9
962.5,34.8,30.4,35.1,33.4,2.6
963.75,35.1,30.4,35.0,33.5,2.7
965.0,34.8,30.2,35.2,33.4,2.8
966.25,35.2,30.7,35.3,33.7,2.6
967.5,35.2,30.6,35.4,33.7,2.7
968.75,35.0,29.8,35.0,33.3,3.0
970.0,35.2,30.2,35.8,33.7,3.1
971.25,35.1,30.2,35.8,33.7,3.0
972.5,35.2,29.7,35.9,33.6,3.4
973.75,35.2,29.8,35.4,33.5,3.2
975.0,34.8,30.3,35.5,33.5,2.8
976.25,35.4,29.5,35.6,33.5,3.4
977.5,34.6,29.9,35.2,33.3,2.9
978.75,34.8,29.4,34.8,33.0,3.1
980.0,34.6,29.7,34.6,33.0,2.8
981.25,33.7,29.5,34.8,32.7,2.8
982.5,33.8,29.6,34.5,32.6,2.7
983.75,33.3,29.7,34.4,32.5,2.5
985.0,33.7,29.4,33.9,32.3,2.5
986.25,33.4,29.4,34.0,32.3,2.5
987.5,33.7,29.3,34.5,32.5,2.8
988.75,34.9,29.6,34.3,32.9,2.9
990.0,34.1,29.9,34.4,32.8,2.5
991.25,34.3,29.5,34.4,32.7,2.8
992.5,33.6,30.3,34.3,32.7,2.2
993.75,33.4,30.6,34.0,32.7,1.8
995.0,33.3,30.6,35.0,33.0,2.2
996.25,33.9,30.0,34.9,32.9,2.6
997.5,34.1,30.1,34.4,32.8,2.4
998.75,33.6,30.0,34.6,32.7,2.4
1000.0,33.6,29.9,34.4,32.6,2.4
1001.25,33.8,30.7,34.0,32.8,1.9
1002.5,33.5,30.4,34.6,32.8,2.2
1003.75,32.9,30.2,35.3,32.8,2.6
1005.0,32.9,30.4,34.9,32.7,2.3
1006.25,32.5,31.1,34.6,32.7,1.8
1007.5,33.1,30.4,34.5,32.7,2.1
1008.75,32.4,31.1,35.0,32.8,2.0
1010.0,32.8,30.6,34.8,32.7,2.1
1011.25,33.0,30.9,34.8,32.9,2.0
1012.5,32.6,30.9,34.8,32.8,2.0
1013.75,33.4,31.2,35.1,33.3,2.0
1015.0,33.9,30.5,34.5,33.0,2.2
1016.25,33.3,30.2,35.0,32.8,2.4
1017.5,33.1,30.2,35.2,32.8,2.5
1018.75,33.0,30.2,35.3,32.8,2.6
1020.0,32.4,29.9,35.1,32.5,2.6
1021.25,32.1,29.8,34.7,32.2,2.5
1022.5,31.9,29.4,34.9,32.1,2.8
1023.75,32.7,29.4,34.8,32.3,2.7
1025.0,32.6,29.7,34.9,32.4,2.6
1026.25,32.1,29.7,35.0,32.3,2.6
1027.5,32.7,30.2,34.4,32.4,2.1
1028.75,33.7,29.7,34.7,32.7,2.7
1030.0,34.4,29.8,35.5,33.2,3.0
1031.25,33.9,29.7,35.9,33.2,3.2
1032.5,34.2,29.5,35.9,33.2,3.3
1033.75,33.3,29.2,35.5,32.7,3.2
1035.0,33.5,29.6,35.1,32.7,2.8
1036.25,33.2,30.0,35.3,32.8,2.6
1037.5,33.0,30.3,35.1,32.8,2.4
1038.75,32.9,29.9,34.8,32.6,2.5
1040.0,33.2,30.6,35.2,33.0,2.3
1041.25,33.4,30.4,35.3,33.0,2.5
1042.5,34.3,30.5,34.9,33.2,2.4
1043.75,33.7,30.4,35.3,33.1,2.5
1045.0,33.7,29.8,34.9,32.8,2.6
1046.25,33.8,30.0,34.9,32.9,2.6
1047.5,34.1,29.8,35.3,33.1,2.9
1048.75,33.7,29.7,35.1,32.9,2.8
1050.0,33.6,29.7,35.4,32.9,2.9
1051.25,34.1,29.7,35.3,33.0,2.9
1052.5,34.2,29.6,35.1,33.0,2.9
1053.75,34.2,29.4,35.4,33.0,3.2
1055.0,33.7,29.5,35.4,32.9,3.1
1056.25,33.7,29.7,34.7,32.7,2.6
1057.5,33.3,29.4,35.6,32.7,3.1
1058.75,33.8,29.6,35.7,33.0,3.1
1060.0,33.8,29.6,35.6,33.0,3.0
1061.25,33.7,29.6,35.2,32.8,2.9
1062.5,34.2,29.7,34.8,32.9,2.8
1063.75,34.2,29.5,34.5,32.7,2.8
1065.0,33.8,29.6,35.1,32.8,2.9
1066.25,33.9,29.5,35.1,32.9,3.0
1067.5,34.7,30.0,35.3,33.3,2.9
1068.75,33.6,30.5,35.6,33.2,2.6
1070.0,33.6,30.6,35.5,33.2,2.4
1071.25,33.6,31.0,35.1,33.3,2.1
1072.5,34.3,30.6,34.3,33.0,2.1
1073.75,34.4,30.6,34.3,33.1,2.2
1075.0,34.8,30.8,35.1,33.6,2.4
1076.25,34.4,30.2,35.0,33.2,2.6
1077.5,35.0,30.1,34.6,33.2,2.7
1078.75,35.4,30.2,34.0,33.2,2.7
1080.0,35.2,29.9,34.3,33.1,2.9
1081.25,35.0,30.3,34.4,33.2,2.6
1082.5,35.0,29.7,34.4,33.0,2.9
1083.75,35.1,29.7,34.5,33.1,3.0
1085.0,35.2,30.0,34.6,33.3,2.8
1086.25,35.2,30.3,34.6,33.4,2.7
1087.5,35.3,30.3,34.9,33.5,2.8
1088.75,35.4,30.4,34.7,33.5,2.7
1090.0,35.2,30.1,35.1,33.4,2.9
1091.25,34.9,30.2,35.7,33.6,3.0
1092.5,34.6,30.0,35.5,33.3,2.9
1093.75,35.1,29.6,35.1,33.3,3.2
1095.0,34.6,29.9,34.5,33.0,2.7
1096.25,35.5,29.3,35.0,33.3,3.4
1097.5,34.8,28.8,35.3,33.0,3.6
1098.75,35.7,28.9,35.2,33.3,3.8
1100.0,35.8,29.3,35.3,33.5,3.6
1101.25,36.2,29.4,35.3,33.6,3.7
1102.5,36.2,29.4,35.2,33.6,3.7
1103.75,35.9,29.5,35.0,33.5,3.5
1105.0,35.7,29.7,34.9,33.4,3.3
1106.25,35.3,29.5,34.7,33.2,3.2
1107.5,35.7,29.8,34.6,33.4,3.2
1108.75,34.6,29.6,34.6,32.9,2.9
1110.0,34.7,29.9,34.4,33.0,2.7
1111.25,34.7,30.1,34.8,33.2,2.7
1112.5,34.2,29.3,34.6,32.7,2.9
1113.75,34.4,28.8,34.8,32.7,3.3
1115.0,34.8,29.0,34.9,32.9,3.4
1116.25,34.3,28.5,35.3,32.7,3.6
1117.5,34.6,28.8,35.7,33.0,3.7
1118.75,34.5,28.8,35.7,33.0,3.7
1120.0,35.0,28.8,35.3,33.0,3.6
1121.25,35.7,29.6,35.1,33.5,3.3
1122.5,35.7,28.8,34.6,33.0,3.7
1123.75,35.9,28.9,34.8,33.2,3.8
1125.0,36.2,29.1,33.9,33.1,3.6
1126.25,36.3,29.8,33.5,33.2,3.3
1127.5,35.7,29.3,33.6,32.9,3.3
1128.75,36.2,29.4,33.0,32.9,3.4
1130.0,35.4,29.5,33.0,32.6,3.0
1131.25,35.8,29.9,32.7,32.8,2.9
1132.5,35.5,29.4,33.0,32.7,3.1
1133.75,36.5,29.8,33.0,33.1,3.4
1135.0,35.8,29.9,33.3,33.0,3.0
1136.25,35.8,30.1,33.5,33.1,2.9
1137.5,35.3,29.9,32.8,32.7,2.7
1138.75,35.2,29.9,33.3,32.8,2.7
1140.0,34.9,29.4,33.1,32.5,2.8
1141.25,35.2,29.0,33.9,32.7,3.2
1142.5,35.7,28.5,33.7,32.7,3.7
1143.75,35.4,28.2,34.0,32.5,3.8
1145.0,35.5,29.0,33.7,32.8,3.4
1146.25,35.2,29.0,33.6,32.6,3.3
1147.5,34.9,29.3,33.7,32.6,2.9
1148.75,34.8,29.3,33.5,32.5,2.8
1150.0,34.3,29.4,33.4,32.4,2.6
1151.25,34.0,29.3,33.2,32.2,2.5
1152.5,33.6,29.4,33.3,32.1,2.4
1153.75,34.5,29.7,33.0,32.4,2.5
1155.0,34.7,29.3,32.9,32.3,2.7
1156.25,34.3,28.7,33.3,32.1,3.0
1157.5,35.0,28.6,33.4,32.3,3.3
1158.75,35.6,28.7,33.4,32.6,3.5
1160.0,35.5,28.5,33.4,32.5,3.6
1161.25,35.3,27.9,33.4,32.2,3.8
1162.5,34.9,28.3,33.4,32.2,3.5
1163.75,35.5,27.9,33.9,32.4,4.0
1165.0,34.8,27.9,33.9,32.2,3.8
1166.25,35.3,28.1,33.5,32.3,3.7
1167.5,35.1,27.6,33.7,32.1,4.0
1168.75,34.2,27.8,33.7,31.9,3.6
1170.0,33.6,28.4,33.1,31.7,2.9
1171.25,33.4,27.9,33.3,31.5,3.2
1172.5,33.2,28.4,33.4,31.7,2.8
1173.75,33.3,28.1,33.9,31.8,3.2
1175.0,34.0,28.1,34.0,32.0,3.4
1176.25,34.2,28.2,33.1,31.8,3.2
1177.5,34.7,28.4,32.7,31.9,3.2
1178.75,34.9,28.2,32.9,32.0,3.4
1180.0,35.2,28.1,32.9,32.1,3.6
1181.25,35.0,28.0,33.1,32.0,3.6
1182.5,35.1,28.1,33.1,32.1,3.6
1183.75,35.4,28.2,32.6,32.1,3.6
1185.0,35.2,27.8,32.7,31.9,3.8
1186.25,34.8,28.2,32.4,31.8,3.4
1187.5,34.8,28.6,32.7,32.0,3.2
1188.75,33.9,29.0,33.1,32.0,2.6
1190.0,33.5,28.7,32.8,31.7,2.6
1191.25,33.7,29.1,32.8,31.9,2.4
1192.5,34.2,28.9,33.1,32.1,2.8
1193.75,34.0,28.8,33.5,32.1,2.9
1195.0,34.1,29.0,33.5,32.2,2.8
1196.25,33.9,29.2,33.6,32.2,2.6
1197.5,34.4,29.1,33.6,32.4,2.8
1198.75,33.8,29.1,33.7,32.2,2.7
1200.0,33.8,28.8,34.3,32.3,3.1
1201.25,33.5,28.5,34.1,32.1,3.1
1202.5,33.4,28.2,34.2,32.0,3.3
1203.75,33.6,28.0,34.0,31.9,3.4
1205.0,33.7,28.1,33.6,31.8,3.2
1206.25,33.4,27.6,33.9,31.6,3.5
1207.5,33.1,28.3,33.7,31.7,3.0
1208.75,33.5,27.9,33.8,31.8,3.3
1210.0,33.9,28.0,33.8,31.9,3.4
1211.25,34.1,28.2,33.4,31.9,3.2
1212.5,33.7,28.4,33.6,31.9,3.0
1213.75,33.9,28.6,33.7,32.1,3.0
1215.0,34.0,28.5,33.7,32.1,3.1
1216.25,34.0,29.0,33.6,32.2,2.8
1217.5,33.8,28.2,34.1,32.0,3.4
1218.75,33.7,28.3,33.1,31.7,3.0
1220.0,33.2,28.6,33.8,31.9,2.8
1221.25,33.7,27.8,34.3,31.9,3.6
1222.5,33.8,28.7,33.6,32.0,2.9
1223.75,33.8,29.0,34.1,32.3,2.9
1225.0,33.5,29.2,34.0,32.2,2.6
1226.25,34.0,29.7,34.3,32.7,2.5
1227.5,33.7,29.0,34.5,32.4,3.0
1228.75,33.1,28.3,34.6,32.0,3.3
1230.0,33.7,28.5,34.1,32.1,3.2
1231.25,34.2,28.7,33.4,32.1,3.0
1232.5,33.3,28.3,32.6,31.4,2.7
1233.75,33.2,28.2,33.3,31.6,2.9
1235.0,33.4,28.4,32.8,31.5,2.8
1236.25,33.3,28.3,32.9,31.5,2.8
1237.5,33.3,27.9,32.9,31.4,3.0
1238.75,33.7,28.0,33.9,31.9,3.4
1240.0,33.4,28.1,33.9,31.8,3.2
1241.25,33.1,28.3,33.8,31.7,3.0
1242.5,32.9,28.5,33.8,31.7,2.9
1243.75,33.0,29.1,33.9,32.0,2.6
1245.0,33.4,29.0,34.1,32.1,2.8
1246.25,32.8,28.9,33.9,31.9,2.6
1247.5,32.8,29.0,34.8,32.2,2.9
1248.75,32.4,28.8,35.0,32.1,3.1
1250.0,32.4,29.2,35.6,32.4,3.2
1251.25,32.8,29.4,36.0,32.7,3.3
1252.5,33.2,29.4,36.1,32.9,3.3
1253.75,32.6,29.5,36.1,32.8,3.3
1255.0,33.3,29.9,35.7,33.0,2.9
1256.25,33.0,30.0,35.5,32.8,2.8
1257.5,33.1,29.8,35.2,32.7,2.7
1258.75,33.2,30.2,35.1,32.8,2.5
1260.0,33.4,29.4,35.2,32.7,3.0
1261.25,33.4,29.6,35.1,32.7,2.8
1262.5,33.7,29.1,34.7,32.5,3.0
1263.75,33.8,28.9,34.3,32.3,3.0
1265.0,34.2,28.7,34.8,32.6,3.3
1266.25,34.4,29.0,34.3,32.6,3.1
1267.5,34.5,28.6,34.6,32.6,3.4
1268.75,34.6,28.5,34.6,32.6,3.5
1270.0,34.6,28.6,33.9,32.4,3.3
1271.25,34.5,28.9,33.9,32.4,3.1
1272.5,34.9,28.9,34.1,32.6,3.3
1273.75,34.3,28.7,33.5,32.2,3.0
1275.0,34.6,28.8,34.0,32.5,3.2
1276.25,34.3,28.6,34.4,32.4,3.3
1277.5,33.5,29.3,33.8,32.2,2.5
1278.75,33.9,29.3,34.1,32.5,2.7
1280.0,34.1,29.0,33.9,32.4,2.9
1281.25,34.3,28.9,34.2,32.5,3.1
1282.5,34.0,28.8,34.3,32.4,3.1
1283.75,33.8,28.9,33.4,32.1,2.7
1285.0,34.2,28.8,33.4,32.1,2.9
1286.25,33.2,28.1,33.9,31.7,3.1
1287.5,33.8,28.5,32.7,31.7,2.8
1288.75,33.6,28.6,33.4,31.9,2.8
1290.0,33.2,28.3,33.3,31.6,2.8
1291.25,33.1,28.8,32.8,31.6,2.4
1292.5,32.4,28.1,33.1,31.2,2.7
1293.75,32.1,28.1,33.2,31.1,2.7
1295.0,32.3,27.5,33.6,31.1,3.2
1296.25,31.7,27.7,33.1,30.8,2.8
1297.5,32.3,27.8,33.2,31.1,2.9
1298.75,32.8,28.0,33.5,31.4,3.0
1300.0,32.3,28.5,33.0,31.3,2.4
1301.25,33.6,28.3,33.3,31.7,3.0
1302.5,33.0,28.5,33.5,31.6,2.8
1303.75,33.1,28.8,33.2,31.7,2.5
1305.0,33.3,28.4,32.6,31.4,2.6
1306.25,33.5,28.7,33.1,31.7,2.7
1307.5,33.1,28.8,33.2,31.7,2.5
1308.75,32.9,28.9,32.9,31.6,2.3
1310.0,32.9,28.7,32.9,31.5,2.4
1311.25,32.7,28.8,32.9,31.5,2.3
1312.5,32.9,28.6,32.3,31.3,2.3
1313.75,32.5,28.7,32.1,31.1,2.1
1315.0,32.2,28.9,31.6,30.9,1.8
1316.25,32.5,28.7,32.6,31.3,2.2
1317.5,32.3,28.6,33.1,31.3,2.4
1318.75,32.7,28.7,33.5,31.6,2.6
1320.0,32.5,28.7,33.5,31.6,2.5
1321.25,32.2,28.1,33.3,31.2,2.7
1322.5,32.2,28.5,33.6,31.4,2.7
1323.75,32.4,28.0,33.6,31.3,2.9
1325.0,32.5,28.6,32.9,31.3,2.4
1326.25,32.6,28.4,33.0,31.3,2.6
1327.5,33.0,28.5,32.7,31.4,2.5
1328.75,32.9,28.4,33.1,31.5,2.7
1330.0,33.0,28.6,33.4,31.7,2.7
1331.25,32.9,29.1,33.9,32.0,2.5
1332.5,32.7,28.9,34.0,31.8,2.7
1333.75,32.7,28.1,35.0,31.9,3.5
1335.0,32.9,27.8,33.8,31.5,3.2
1336.25,33.4,28.0,34.1,31.8,3.4
1337.5,33.6,27.8,34.1,31.8,3.5
1338.75,33.9,28.6,33.9,32.1,3.1
1340.0,33.5,27.7,34.1,31.7,3.5
1341.25,32.6,28.3,34.4,31.8,3.1
1342.5,32.9,28.4,34.1,31.8,3.0
1343.75,32.9,28.1,34.7,31.9,3.4
1345.0,33.2,28.1,34.2,31.8,3.3
1346.25,32.4,28.1,34.4,31.6,3.2
1347.5,32.6,28.8,34.9,32.1,3.1
1348.75,32.7,28.2,34.5,31.8,3.3
1350.0,33.1,28.5,34.8,32.2,3.2
1351.25,33.0,28.2,34.1,31.8,3.1
1352.5,32.5,27.8,34.5,31.6,3.5
1353.75,32.7,28.2,34.5,31.8,3.3
1355.0,32.8,27.8,34.0,31.5,3.3
1356.25,32.1,27.7,33.2,31.0,2.9
1357.5,32.1,27.4,33.8,31.1,3.3
1358.75,31.2,27.9,33.3,30.8,2.7
1360.0,32.0,28.4,33.4,31.3,2.6
1361.25,32.0,28.4,33.2,31.2,2.5
1362.5,32.5,29.5,33.3,31.8,2.0
1363.75,32.5,30.4,33.2,32.0,1.4
1365.0,32.9,30.3,33.0,32.1,1.5
1366.25,32.4,29.7,33.0,31.7,1.8
1367.5,32.3,29.3,32.0,31.2,1.6
1368.75,32.0,29.1,32.1,31.1,1.7
1370.0,31.9,29.0,32.1,31.0,1.7
1371.25,32.0,28.9,32.1,31.0,1.8
1372.5,32.1,28.9,31.9,31.0,1.8
1373.75,31.8,28.5,32.2,30.8,2.1
1375.0,31.4,28.1,32.4,30.6,2.3
1376.25,31.8,28.0,31.6,30.5,2.2
1377.5,31.4,27.5,32.0,30.3,2.5
1378.75,31.2,27.0,32.1,30.1,2.7
1380.0,31.6,27.0,31.9,30.2,2.7
1381.25,30.5,26.8,31.7,29.7,2.5
1382.5,30.7,26.6,31.6,29.6,2.7
1383.75,30.8,27.2,31.6,29.9,2.3
1385.0,30.3,27.4,32.3,30.0,2.5
1386.25,30.3,27.5,32.1,30.0,2.3
1387.5,30.5,27.2,31.7,29.8,2.3
1388.75,30.7,27.5,31.4,29.9,2.1
1390.0,30.8,27.8,31.3,30.0,1.9
1391.25,30.8,27.9,31.6,30.1,2.0
1392.5,30.9,27.9,31.5,30.1,1.9
1393.75,30.6,27.6,32.2,30.1,2.3
1395.0,30.7,27.1,32.7,30.2,2.8
1396.25,30.8,27.2,31.4,29.8,2.3
1397.5,31.2,27.8,32.0,30.3,2.2
1398.75,31.6,27.9,31.5,30.3,2.1
1400.0,32.0,28.2,32.0,30.7,2.2
1401.25,32.8,28.5,33.1,31.5,2.6
1402.5,32.5,28.3,32.7,31.2,2.5
1403.75,32.5,28.1,32.7,31.1,2.6
1405.0,32.3,28.3,33.5,31.4,2.7
1406.25,31.5,28.8,33.2,31.2,2.2
1407.5,32.1,28.5,32.7,31.1,2.3
1408.75,31.8,28.3,33.1,31.1,2.5
1410.0,31.6,28.6,33.2,31.1,2.3
1411.25,31.3,28.2,32.5,30.7,2.2
1412.5,30.8,27.6,32.7,30.4,2.6
1413.75,30.8,26.9,32.5,30.1,2.8
1415.0,30.2,27.0,33.0,30.1,3.0
1416.25,30.8,26.8,32.7,30.1,3.0
1417.5,30.5,26.6,32.8,30.0,3.2
1418.75,30.5,26.4,32.9,30.0,3.3
1420.0,30.8,26.9,33.3,30.3,3.2
1421.25,31.2,26.6,33.3,30.4,3.4
1422.5,31.3,27.0,33.2,30.5,3.2
1423.75,32.2,26.8,33.7,30.9,3.6
1425.0,31.1,27.2,33.1,30.5,3.0
1426.25,31.0,27.2,33.2,30.5,3.0
1427.5,31.4,27.0,32.1,30.2,2.8
1428.75,32.2,26.7,32.8,30.6,3.3
1430.0,32.1,26.7,33.0,30.6,3.4
1431.25,32.0,26.9,32.7,30.6,3.2
1432.5,32.7,27.0,32.7,30.8,3.3
1433.75,32.3,26.9,33.0,30.7,3.3
1435.0,33.5,27.2,32.7,31.1,3.4
1436.25,33.4,27.5,32.3,31.0,3.1
1437.5,33.4,27.4,32.3,31.0,3.2
1438.75,33.4,27.5,32.4,31.1,3.1
1440.0,33.7,27.1,31.4,30.8,3.3
1441.25,33.2,27.4,32.0,30.9,3.1
1442.5,32.9,26.8,32.0,30.6,3.3
1443.75,32.5,26.8,31.8,30.4,3.1
1445.0,32.2,26.7,31.9,30.3,3.1
1446.25,32.8,26.2,31.9,30.3,3.6
1447.5,32.2,26.3,32.2,30.3,3.4
1448.75,32.1,26.3,31.5,30.0,3.2
1450.0,31.9,27.0,31.0,29.9,2.6
1451.25,31.9,26.9,30.4,29.7,2.6
1452.5,32.3,27.3,30.8,30.1,2.6
1453.75,31.6,27.2,30.5,29.7,2.3
1455.0,31.2,26.9,31.3,29.8,2.5
1456.25,31.0,27.6,31.6,30.0,2.2
1457.5,30.7,27.1,32.2,30.0,2.6
1458.75,31.8,26.7,31.9,30.1,3.0
1460.0,31.7,26.6,32.4,30.2,3.2
1461.25,31.9,26.9,31.9,30.2,2.9
1462.5,31.3,27.7,31.5,30.2,2.2
1463.75,31.2,27.6,32.5,30.5,2.5
1465.0,31.0,27.6,31.5,30.1,2.1
1466.25,30.4,27.3,31.4,29.7,2.1
1467.5,30.1,27.7,31.5,29.8,1.9
1468.75,30.2,27.9,31.6,29.9,1.9
1470.0,30.9,27.8,32.3,30.3,2.3
1471.25,31.0,28.2,32.0,30.4,1.9
1472.5,30.6,27.2,31.9,29.9,2.4
1473.75,31.0,27.4,31.6,30.0,2.3
1475.0,31.1,27.1,31.9,30.0,2.6
1476.25,31.0,26.6,31.6,29.7,2.7
1477.5,30.4,27.0,31.1,29.5,2.2
1478.75,31.2,27.5,31.7,30.1,2.3
1480.0,31.1,26.8,31.8,29.9,2.7
1481.25,30.7,26.6,32.4,29.9,3.0
1482.5,30.9,26.6,32.3,29.9,3.0
1483.75,31.0,26.2,32.3,29.9,3.2
1485.0,31.0,26.4,32.4,29.9,3.1
1486.25,30.9,26.3,32.5,29.9,3.2
1487.5,30.9,26.2,32.7,29.9,3.4
1488.75,31.1,26.5,32.6,30.1,3.2
1490.0,32.5,26.7,32.3,30.5,3.3
1491.25,31.8,26.2,31.4,29.8,3.1
1492.5,32.7,26.0,31.7,30.1,3.6
1493.75,32.7,26.6,31.6,30.3,3.3
1495.0,33.0,26.7,31.5,30.4,3.3
1496.25,32.8,27.2,31.9,30.7,3.0
1497.5,33.4,26.9,32.0,30.7,3.4
1498.75,33.3,27.4,31.8,30.8,3.1
1500.0,33.2,27.6,31.5,30.8,2.9
1501.25,33.5,27.8,31.1,30.8,2.9
1502.5,33.0,27.8,31.0,30.6,2.6
1503.75,33.8,27.7,31.0,30.8,3.1
1505.0,33.9,27.7,31.2,30.9,3.1
1506.25,33.6,27.6,30.7,30.6,3.0
1507.5,34.4,27.8,30.7,31.0,3.3
1508.75,33.4,27.6,30.7,30.6,2.9
1510.0,33.2,27.3,30.9,30.5,3.0
1511.25,32.9,27.8,30.7,30.5,2.6
1512.5,32.6,26.6,30.8,30.0,3.1
1513.75,32.5,26.8,30.8,30.0,2.9
1515.0,32.7,26.4,30.8,30.0,3.2
1516.25,32.6,26.4,30.6,29.9,3.1
1517.5,33.1,26.1,30.6,30.0,3.5
1518.75,33.0,26.5,30.2,29.9,3.2
1520.0,32.9,26.2,30.4,29.8,3.4
1521.25,33.0,26.5,30.3,29.9,3.2
1522.5,32.8,26.7,30.9,30.1,3.1
1523.75,33.3,26.5,31.1,30.3,3.5
1525.0,33.9,26.6,30.7,30.4,3.7
1526.25,33.8,26.6,30.9,30.4,3.6
1527.5,33.8,26.6,30.5,30.3,3.6
1528.75,33.3,27.0,30.6,30.3,3.1
1530.0,33.4,26.7,30.7,30.3,3.4
1531.25,32.4,27.0,30.3,29.9,2.7
1532.5,33.1,27.2,30.7,30.3,3.0
1533.75,32.9,26.8,30.4,30.0,3.0
1535.0,32.7,26.8,30.2,29.9,3.0
1536.25,32.7,26.8,30.6,30.0,3.0
1537.5,32.3,27.2,31.1,30.2,2.6
1538.75,32.1,26.9,30.5,29.8,2.6
1540.0,31.7,26.8,30.7,29.7,2.6
1541.25,31.8,26.7,31.1,29.9,2.7
1542.5,32.3,26.6,30.9,30.0,3.0
1543.75,32.4,26.8,31.3,30.1,3.0
1545.0,33.0,26.1,31.2,30.1,3.6
1546.25,33.2,26.1,31.0,30.1,3.6
1547.5,33.3,25.8,31.3,30.2,3.9
1548.75,34.1,25.9,31.2,30.4,4.2
1550.0,33.6,25.6,31.1,30.1,4.1
1551.25,34.0,26.5,31.7,30.7,3.8
1552.5,33.6,26.6,31.1,30.4,3.5
1553.75,32.9,26.7,30.8,30.1,3.2
1555.0,33.2,26.2,30.9,30.1,3.5
1556.25,33.3,26.8,31.1,30.4,3.3
1557.5,34.1,26.7,31.8,30.8,3.8
1558.75,33.9,26.4,31.0,30.4,3.8
1560.0,34.1,27.0,31.0,30.7,3.6
1561.25,34.3,27.5,30.6,30.8,3.4
1562.5,33.6,27.6,31.2,30.8,3.0
1563.75,33.3,27.8,30.7,30.6,2.8
1565.0,33.8,28.1,30.5,30.8,2.9
1566.25,33.3,28.4,30.0,30.6,2.5
1567.5,33.2,28.6,29.9,30.6,2.4
1568.75,33.8,28.3,29.6,30.6,2.9
1570.0,33.7,28.0,29.9,30.5,2.9
1571.25,34.3,27.8,30.5,30.9,3.3
1572.5,33.9,27.6,30.4,30.7,3.1
1573.75,34.5,28.0,30.3,30.9,3.3
1575.0,34.0,27.9,30.7,30.9,3.1
1576.25,34.0,27.0,30.7,30.6,3.5
1577.5,33.7,26.8,30.6,30.4,3.5
1578.75,33.3,26.6,30.1,30.0,3.4
1580.0,32.8,26.8,29.7,29.8,3.0
1581.25,32.6,27.3,29.6,29.8,2.7
1582.5,33.3,27.1,29.2,29.9,3.2
1583.75,33.2,27.3,29.5,30.0,3.0
1585.0,33.5,26.5,29.2,29.7,3.5
1586.25,33.4,26.8,29.3,29.9,3.3
1587.5,33.9,26.9,29.7,30.2,3.5
1588.75,33.7,27.5,29.9,30.4,3.1
1590.0,34.1,27.1,30.1,30.5,3.5
1591.25,34.7,26.9,30.9,30.8,3.9
1592.5,35.0,26.9,30.3,30.7,4.1
1593.75,35.1,27.0,30.5,30.8,4.1
1595.0,34.2,27.2,30.4,30.6,3.5
1596.25,34.1,27.2,30.0,30.4,3.4
1597.5,34.7,27.2,29.9,30.6,3.8
1598.75,35.1,27.3,29.9,30.8,4.0
1600.0,35.1,27.3,30.0,30.8,4.0
1601.25,35.1,27.5,30.0,30.9,3.9
1602.5,35.4,27.6,30.2,31.1,4.0
1603.75,35.9,27.5,30.6,31.3,4.2
1605.0,35.5,27.6,30.0,31.0,4.1
1606.25,35.6,27.0,29.9,30.8,4.4
1607.5,35.3,26.7,30.1,30.7,4.3
1608.75,35.1,26.8,30.1,30.7,4.1
1610.0,34.5,26.9,30.1,30.5,3.8
1611.25,34.5,26.7,30.0,30.4,3.9
1612.5,33.8,26.8,29.3,30.0,3.6
1613.75,34.3,26.6,28.9,29.9,3.9
1615.0,34.2,25.8,29.6,29.9,4.2
1616.25,33.8,25.4,30.0,29.7,4.2
1617.5,33.9,25.3,29.7,29.6,4.3
1618.75,33.4,25.3,29.6,29.4,4.0
1620.0,33.7,25.1,29.1,29.3,4.3
1621.25,33.4,25.1,28.7,29.1,4.1
1622.5,33.1,25.3,29.0,29.2,3.9
1623.75,32.6,25.4,28.8,28.9,3.6
1625.0,33.0,25.3,28.8,29.0,3.8
1626.25,33.2,25.9,29.0,29.4,3.6
1627.5,33.2,25.6,29.8,29.5,3.8
1628.75,32.4,25.8,29.8,29.3,3.3
1630.0,33.3,26.0,29.6,29.6,3.6
1631.25,33.6,25.9,29.8,29.8,3.9
1632.5,33.6,25.7,29.6,29.7,4.0
1633.75,34.1,25.6,29.6,29.8,4.3
1635.0,34.3,25.8,29.4,29.8,4.3
1636.25,34.0,26.3,28.9,29.7,3.9
1637.5,33.4,25.9,29.1,29.5,3.8
1638.75,33.1,26.4,29.3,29.6,3.4
1640.0,33.0,26.4,28.8,29.4,3.4
1641.25,32.8,26.5,28.3,29.2,3.3
1642.5,32.7,26.1,28.9,29.2,3.3
1643.75,33.1,25.5,29.3,29.3,3.8
1645.0,32.7,26.1,29.3,29.4,3.3
1646.25,33.5,26.9,29.6,30.0,3.3
1647.5,32.9,27.0,29.4,29.8,3.0
1648.75,32.5,27.1,29.2,29.6,2.7
1650.0,32.6,27.1,28.7,29.5,2.8
1651.25,32.5,27.1,28.8,29.4,2.8
1652.5,32.3,26.4,28.8,29.2,3.0
1653.75,32.2,25.9,28.9,29.0,3.2
1655.0,32.5,25.8,29.0,29.1,3.3
1656.25,32.4,24.6,29.1,28.7,3.9
1657.5,32.4,25.0,29.0,28.8,3.7
1658.75,32.2,24.6,29.0,28.6,3.8
1660.0,32.0,24.5,29.0,28.5,3.8
1661.25,31.9,23.6,29.6,28.3,4.3
1662.5,32.1,23.6,29.2,28.3,4.3
1663.75,32.5,23.0,30.3,28.6,5.0
1665.0,32.2,23.5,30.0,28.6,4.5
1666.25,31.9,23.4,29.8,28.4,4.4
1667.5,32.2,23.7,29.8,28.6,4.4
1668.75,32.2,24.0,29.8,28.7,4.2
1670.0,32.4,24.3,30.7,29.1,4.3
1671.25,32.5,24.7,29.8,29.0,4.0
1672.5,31.7,25.1,30.3,29.0,3.4
1673.75,31.3,25.0,30.1,28.8,3.4
1675.0,31.6,25.0,30.0,28.9,3.5
1676.25,30.9,25.1,30.5,28.8,3.2
1677.5,31.7,24.8,29.9,28.8,3.6
1678.75,31.3,24.9,29.6,28.6,3.3
1680.0,31.1,24.2,29.9,28.4,3.7
1681.25,30.8,24.7,29.2,28.3,3.2
1682.5,31.2,24.7,29.5,28.5,3.4
1683.75,31.0,24.6,28.8,28.1,3.2
1685.0,31.2,24.7,29.0,28.3,3.3
1686.25,32.1,24.5,28.7,28.4,3.8
1687.5,32.3,24.0,28.8,28.4,4.1
1688.75,32.7,24.5,29.1,28.8,4.1
1690.0,33.6,24.2,29.1,29.0,4.7
1691.25,34.3,24.4,29.2,29.3,5.0
1692.5,34.3,24.1,29.5,29.3,5.1
1693.75,35.2,23.9,29.9,29.6,5.6
1695.0,35.2,24.8,30.1,30.0,5.2
1696.25,35.3,25.2,29.8,30.1,5.1
1697.5,34.9,25.8,29.6,30.1,4.6
1698.75,35.3,25.8,29.8,30.3,4.7
1700.0,34.4,26.5,29.8,30.2,4.0
1701.25,33.0,26.6,28.8,29.5,3.3
1702.5,33.2,26.2,29.2,29.5,3.5
1703.75,33.1,26.4,29.2,29.6,3.3
1705.0,32.6,26.5,28.7,29.3,3.1
1706.25,32.6,26.1,29.3,29.3,3.3
1707.5,33.0,25.8,28.8,29.2,3.6
1708.75,32.8,25.0,29.2,29.0,3.9
1710.0,33.1,24.6,29.1,28.9,4.2
1711.25,33.0,25.0,29.0,29.0,4.0
1712.5,32.9,25.0,28.7,28.9,4.0
1713.75,32.7,25.0,29.1,28.9,3.9
1715.0,33.4,25.6,28.7,29.2,3.9
1716.25,32.7,25.3,28.8,28.9,3.7
1717.5,32.0,25.5,29.0,28.8,3.2
1718.75,32.7,25.8,29.4,29.3,3.4
1720.0,31.5,25.6,29.0,28.7,2.9
1721.25,31.6,24.9,28.1,28.2,3.4
1722.5,31.5,25.1,28.7,28.4,3.2
1723.75,31.5,25.2,28.0,28.2,3.2
1725.0,31.6,24.9,27.4,28.0,3.4
1726.25,31.2,24.9,27.5,27.9,3.2
1727.5,31.6,24.6,27.9,28.0,3.5
1728.75,31.2,25.0,27.5,27.9,3.1
1730.0,31.0,24.8,27.6,27.8,3.1
1731.25,31.0,25.0,27.5,27.8,3.0
1732.5,30.3,25.0,28.3,27.9,2.7
1733.75,30.9,25.4,28.5,28.2,2.7
1735.0,30.1,25.6,28.4,28.0,2.3
1736.25,30.5,25.6,28.7,28.3,2.5
1737.5,30.7,24.8,27.9,27.8,3.0
1738.75,30.9,24.9,28.7,28.1,3.0
1740.0,30.5,24.6,28.3,27.8,3.0
1741.25,30.6,25.1,27.9,27.8,2.8
1742.5,30.2,24.6,27.9,27.6,2.8
1743.75,30.6,24.7,28.0,27.8,3.0
1745.0,30.4,24.8,28.4,27.8,2.8
1746.25,30.0,25.0,28.2,27.7,2.5
1747.5,30.3,25.3,28.6,28.1,2.5
1748.75,29.9,25.1,28.2,27.7,2.4
1750.0,30.5,24.6,28.4,27.9,3.0
1751.25,30.2,24.3,28.2,27.6,3.0
1752.5,29.8,24.5,28.1,27.5,2.8
1753.75,29.6,24.6,28.4,27.5,2.6
1755.0,29.4,24.6,28.1,27.3,2.5
1756.25,29.4,24.5,28.5,27.5,2.6
1757.5,30.3,23.9,28.2,27.4,3.3
1758.75,30.6,24.1,28.6,27.7,3.3
1760.0,31.1,24.1,28.9,28.0,3.6
1761.25,31.2,23.8,28.9,28.0,3.8
1762.5,31.3,23.8,28.8,28.0,3.8
1763.75,30.6,23.9,28.9,27.8,3.5
1765.0,30.7,23.6,28.6,27.6,3.6
1766.25,31.1,23.3,28.7,27.7,3.9
1767.5,30.9,22.9,28.7,27.5,4.2
1768.75,30.4,23.0,28.3,27.2,3.8
1770.0,30.7,22.8,28.5,27.3,4.1
1771.25,29.9,22.8,28.6,27.1,3.8
1772.5,29.9,23.2,28.7,27.2,3.6
1773.75,30.3,22.7,28.6,27.2,4.0
1775.0,29.7,22.9,28.6,27.0,3.6
1776.25,30.1,22.9,28.5,27.2,3.8
1777.5,30.2,22.7,28.6,27.2,3.9
1778.75,29.9,22.4,28.3,26.9,3.9
1780.0,29.5,22.9,29.1,27.1,3.7
1781.25,29.7,23.6,29.6,27.6,3.5
1782.5,28.8,24.0,29.7,27.5,3.1
1783.75,29.6,24.5,30.4,28.2,3.2
1785.0,29.8,24.6,30.2,28.2,3.1
1786.25,29.4,24.4,30.4,28.1,3.2
1787.5,29.8,24.6,29.9,28.1,3.0
1787.75,29.5,24.6,30.0,28.0,3.0