File: 01_Data/Engineered_Flooring/Cone/Engineered_Flooring_HRRPUA_50.csv
Time after Ignition,Engineered_Flooring_R1,Engineered_Flooring_R2,Engineered_Flooring_R3,Mean,Std. Dev.
0.0,18.2,31.2,20.4,23.2,7.0
1.0,47.6,61.4,42.2,50.4,9.9
2.0,82.5,110.9,75.0,89.4,18.9
3.0,127.1,156.5,118.7,134.1,19.8
4.0,168.7,191.1,151.1,170.3,20.0
5.0,206.3,227.9,188.2,207.5,19.9
6.0,237.8,248.3,210.4,232.2,19.6
7.0,260.6,274.4,239.0,258.0,17.9
8.0,275.1,275.3,250.5,267.0,14.3
9.0,282.2,278.2,256.4,272.3,13.9
10.0,291.7,286.1,267.0,281.6,13.0
11.0,298.6,282.7,263.2,281.5,17.7
12.0,293.7,283.1,270.4,282.4,11.6
13.0,282.5,285.6,269.3,279.1,8.7
14.0,285.8,277.7,273.6,279.0,6.2
15.0,287.4,275.3,268.4,277.0,9.6
16.0,286.5,275.9,271.4,277.9,7.7
17.0,278.8,279.4,275.5,277.9,2.1
18.0,278.6,273.8,271.6,274.7,3.6
19.0,273.9,276.7,278.0,276.2,2.1
20.0,274.2,281.0,279.5,278.2,3.5
21.0,277.4,279.4,280.6,279.1,1.7
22.0,279.1,281.6,286.4,282.3,3.7
23.0,279.0,291.5,286.2,285.6,6.3
24.0,290.2,295.7,288.9,291.6,3.6
25.0,294.6,302.0,298.7,298.4,3.7
26.0,288.4,297.9,296.8,294.4,5.2
27.0,294.2,306.0,293.2,297.8,7.1
28.0,297.6,304.5,302.2,301.4,3.5
29.0,292.6,300.1,299.4,297.4,4.1
30.0,294.2,301.0,302.9,299.4,4.6
31.0,307.0,296.7,298.6,300.8,5.5
32.0,297.5,298.0,305.8,300.4,4.7
33.0,297.9,299.3,302.2,299.8,2.2
34.0,297.2,299.3,299.9,298.8,1.4
35.0,291.7,292.8,294.1,292.9,1.2
36.0,290.7,293.1,287.3,290.3,2.9
37.0,288.4,288.7,285.1,287.4,2.0
38.0,289.4,290.0,282.7,287.4,4.1
39.0,286.0,285.9,283.2,285.0,1.5
40.0,277.2,281.0,276.2,278.1,2.6
41.0,276.1,276.5,276.7,276.4,0.3
42.0,269.6,275.0,273.0,272.5,2.7
43.0,263.6,273.8,268.6,268.7,5.1
44.0,264.4,263.6,265.6,264.5,1.0
45.0,256.3,261.2,260.1,259.2,2.5
46.0,248.9,259.2,255.0,254.4,5.2
47.0,251.9,253.3,252.5,252.5,0.7
48.0,245.0,249.0,242.9,245.6,3.1
49.0,243.5,250.1,243.6,245.8,3.8
50.0,241.4,241.6,237.9,240.3,2.1
51.0,229.9,235.0,234.2,233.1,2.7
52.0,227.2,236.5,235.1,232.9,5.0
53.0,227.9,234.0,234.7,232.2,3.7
54.0,221.7,228.6,225.4,225.2,3.5
55.0,219.5,222.3,220.0,220.6,1.5
56.0,213.8,218.6,222.8,218.4,4.5
57.0,214.0,214.0,214.6,214.2,0.3
58.0,212.0,211.2,214.5,212.6,1.7
59.0,211.8,205.6,214.4,210.6,4.5
60.0,209.5,206.7,208.7,208.3,1.4
61.0,210.5,205.9,204.4,206.9,3.2
62.0,204.5,202.7,200.0,202.4,2.3
63.0,204.1,199.7,198.4,200.7,3.0
64.0,197.8,197.2,194.4,196.5,1.8
65.0,196.2,193.2,197.2,195.5,2.1
66.0,191.3,191.2,194.8,192.4,2.0
67.0,187.3,194.6,190.2,190.7,3.7
68.0,186.8,193.2,189.3,189.7,3.2
69.0,185.7,188.2,188.3,187.4,1.5
70.0,183.1,185.4,184.4,184.3,1.2
71.0,184.2,182.3,183.0,183.2,1.0
72.0,180.7,183.6,184.3,182.9,1.9
73.0,177.6,182.9,180.4,180.3,2.7
74.0,176.3,180.5,179.6,178.8,2.2
75.0,175.1,181.1,174.9,177.0,3.5
76.0,173.1,178.3,177.4,176.2,2.8
77.0,170.5,178.3,172.0,173.6,4.1
78.0,172.1,177.7,173.2,174.3,3.0
79.0,164.4,175.3,172.4,170.7,5.6
80.0,166.8,174.3,172.8,171.3,4.0
81.0,166.6,172.7,168.5,169.3,3.2
82.0,163.2,167.8,168.6,166.5,2.9
83.0,163.5,170.2,165.7,166.5,3.4
84.0,162.0,168.7,165.5,165.4,3.3
85.0,162.2,167.8,162.8,164.3,3.1
86.0,160.1,164.9,162.6,162.5,2.4
87.0,161.6,167.2,157.8,162.2,4.7
88.0,161.5,162.0,158.8,160.8,1.7
89.0,160.9,162.5,157.4,160.3,2.6
90.0,158.9,164.5,157.8,160.4,3.6
91.0,159.4,163.8,156.1,159.8,3.9
92.0,156.8,161.0,154.8,157.5,3.2
93.0,158.6,160.6,157.4,158.8,1.6
94.0,154.5,159.5,155.2,156.4,2.7
95.0,154.7,161.2,154.8,156.9,3.7
96.0,152.6,161.1,154.9,156.2,4.4
97.0,153.9,157.2,154.1,155.1,1.8
98.0,151.5,154.9,151.8,152.7,1.9
99.0,152.8,157.5,148.4,152.9,4.6
100.0,151.9,154.3,155.0,153.7,1.6
101.0,150.1,155.8,149.2,151.7,3.6
102.0,150.4,157.3,150.7,152.8,3.9
103.0,150.2,154.0,148.8,151.0,2.7
104.0,147.6,154.4,149.5,150.5,3.5
105.0,150.7,157.5,148.3,152.2,4.8
106.0,148.0,153.3,149.6,150.3,2.7
107.0,151.0,157.8,147.0,151.9,5.5
108.0,152.1,155.6,147.2,151.6,4.2
109.0,146.5,152.4,147.1,148.6,3.3
110.0,149.2,156.8,147.9,151.3,4.8
111.0,146.4,155.8,147.5,149.9,5.1
112.0,147.2,153.9,146.2,149.1,4.2
113.0,147.7,155.6,148.2,150.5,4.4
114.0,148.5,155.7,149.1,151.1,4.0
115.0,149.9,153.4,147.5,150.3,2.9
116.0,148.0,151.7,148.9,149.5,2.0
117.0,147.0,153.2,145.7,148.6,4.0
118.0,147.2,153.3,150.2,150.2,3.1
119.0,145.8,154.1,149.5,149.8,4.2
120.0,148.9,153.2,146.8,149.6,3.3
121.0,145.2,152.4,146.6,148.1,3.8
122.0,145.2,151.9,148.1,148.4,3.4
123.0,146.9,153.2,147.1,149.1,3.6
124.0,146.6,155.1,147.7,149.8,4.6
125.0,149.5,152.9,146.1,149.5,3.4
126.0,145.1,151.7,146.1,147.6,3.6
127.0,148.5,153.4,144.4,148.8,4.5
128.0,149.4,152.7,146.0,149.4,3.4
129.0,145.7,153.6,145.2,148.2,4.7
130.0,149.7,150.8,146.3,148.9,2.3
131.0,144.7,151.5,146.4,147.6,3.5
132.0,148.8,150.7,149.3,149.6,1.0
133.0,147.7,150.9,146.5,148.4,2.3
134.0,147.1,148.5,145.3,147.0,1.6
135.0,149.0,150.4,146.8,148.7,1.8
136.0,148.2,151.4,147.7,149.1,2.0
137.0,145.1,151.6,146.9,147.9,3.3
138.0,146.0,154.5,145.9,148.8,5.0
139.0,148.8,152.5,146.8,149.4,2.9
140.0,147.6,151.8,148.5,149.3,2.2
141.0,149.1,155.9,144.6,149.8,5.7
142.0,150.2,155.0,145.2,150.1,4.9
143.0,148.6,155.1,146.0,149.9,4.7
144.0,148.4,153.5,145.4,149.1,4.1
145.0,147.4,153.9,144.2,148.5,4.9
146.0,148.4,153.4,147.7,149.8,3.1
147.0,144.4,153.6,146.2,148.1,4.9
148.0,151.9,156.3,146.2,151.5,5.1
149.0,147.2,153.6,148.1,149.7,3.4
150.0,149.7,155.0,146.1,150.3,4.5
151.0,148.2,156.0,145.6,149.9,5.4
152.0,148.4,151.4,145.8,148.6,2.8
153.0,146.3,151.6,145.8,147.9,3.2
154.0,148.0,153.3,145.5,148.9,4.0
155.0,145.1,151.7,142.5,146.4,4.7
156.0,149.3,155.1,144.3,149.6,5.4
157.0,146.3,154.0,144.6,148.3,5.0
158.0,147.9,154.8,144.3,149.0,5.3
159.0,149.6,155.9,145.2,150.2,5.4
160.0,149.6,155.3,146.7,150.5,4.4
161.0,150.6,153.7,146.1,150.2,3.8
162.0,147.8,154.3,149.6,150.5,3.4
163.0,146.9,152.1,146.1,148.4,3.3
164.0,147.4,154.6,147.4,149.8,4.2
165.0,147.6,154.5,144.3,148.8,5.2
166.0,147.6,151.1,146.2,148.3,2.5
167.0,149.4,157.9,145.8,151.0,6.2
168.0,148.9,150.9,146.9,148.9,2.0
169.0,145.5,154.5,146.4,148.8,5.0
170.0,148.3,153.5,145.0,148.9,4.3
171.0,147.2,152.5,143.4,147.7,4.6
172.0,144.9,152.5,145.7,147.7,4.2
173.0,145.5,152.9,147.5,148.6,3.8
174.0,148.5,155.5,145.1,149.7,5.3
175.0,149.5,151.7,146.8,149.3,2.5
176.0,148.0,151.7,146.4,148.7,2.7
177.0,144.6,152.4,147.4,148.1,3.9
178.0,149.6,152.1,147.7,149.8,2.2
179.0,147.5,151.5,151.0,150.0,2.2
180.0,147.5,153.7,147.7,149.6,3.5
181.0,146.9,153.4,146.5,149.0,3.9
182.0,146.4,153.2,148.0,149.2,3.5
183.0,146.2,153.9,147.2,149.1,4.2
184.0,146.0,154.2,145.7,148.6,4.8
185.0,144.9,153.6,144.5,147.7,5.1
186.0,149.8,156.3,145.9,150.7,5.3
187.0,148.8,153.8,148.2,150.3,3.1
188.0,145.5,154.7,150.3,150.2,4.6
189.0,147.7,153.4,147.9,149.7,3.2
190.0,145.9,157.6,148.4,150.6,6.1
191.0,144.9,154.9,148.3,149.4,5.1
192.0,146.1,156.0,148.1,150.1,5.2
193.0,149.4,155.4,149.5,151.4,3.4
194.0,147.5,153.9,149.8,150.4,3.3
195.0,145.1,156.3,149.2,150.2,5.7
196.0,147.3,154.8,152.6,151.6,3.8
197.0,148.6,154.6,150.5,151.2,3.0
198.0,152.5,153.3,149.1,151.7,2.2
199.0,150.4,157.0,148.7,152.0,4.4
200.0,153.8,155.9,152.6,154.1,1.6
201.0,152.1,155.3,152.5,153.3,1.8
202.0,152.9,157.4,153.0,154.4,2.5
203.0,153.6,158.8,152.6,155.0,3.3
204.0,152.2,154.6,151.9,152.9,1.5
205.0,153.9,153.7,155.2,154.3,0.8
206.0,154.0,156.4,154.3,154.9,1.3
207.0,151.5,153.9,152.7,152.7,1.2
208.0,154.5,155.2,153.9,154.5,0.6
209.0,151.2,159.6,152.5,154.4,4.5
210.0,152.8,157.0,153.0,154.3,2.4
211.0,157.3,159.1,154.2,156.9,2.5
212.0,157.0,158.6,152.8,156.1,3.0
213.0,158.7,158.9,155.0,157.5,2.2
214.0,159.2,160.9,155.5,158.5,2.7
215.0,158.8,163.7,157.9,160.1,3.1
216.0,157.6,163.2,156.7,159.2,3.5
217.0,156.0,164.4,155.3,158.6,5.0
218.0,160.1,165.0,159.7,161.6,3.0
219.0,158.3,161.1,158.3,159.2,1.6
220.0,156.5,168.3,160.7,161.8,6.0
221.0,157.8,164.6,163.5,161.9,3.7
222.0,160.8,168.3,163.4,164.2,3.8
223.0,161.5,166.7,162.9,163.7,2.7
224.0,159.8,169.9,163.1,164.3,5.1
225.0,163.3,167.9,162.8,164.6,2.8
226.0,165.2,168.9,164.2,166.1,2.5
227.0,162.4,171.7,167.4,167.1,4.7
228.0,166.4,171.3,168.7,168.8,2.5
229.0,164.6,170.9,167.9,167.8,3.1
230.0,166.7,171.8,168.8,169.1,2.5
231.0,166.0,173.1,168.2,169.1,3.6
232.0,168.4,173.2,169.3,170.3,2.6
233.0,164.6,175.2,170.6,170.2,5.3
234.0,168.3,177.0,170.2,171.9,4.6
235.0,170.8,180.0,172.8,174.5,4.9
236.0,170.8,180.8,171.1,174.3,5.7
237.0,174.6,180.4,171.8,175.6,4.4
238.0,174.2,183.7,173.5,177.1,5.7
239.0,173.9,183.5,174.9,177.4,5.3
240.0,172.8,184.1,174.2,177.0,6.2
241.0,175.1,185.7,176.4,179.1,5.8
242.0,176.5,185.4,177.1,179.7,4.9
243.0,177.2,186.9,180.5,181.5,5.0
244.0,180.3,188.5,177.9,182.2,5.6
245.0,178.5,188.9,180.4,182.6,5.6
246.0,177.9,193.3,180.5,183.9,8.3
247.0,183.2,193.7,183.3,186.7,6.0
248.0,183.8,197.3,185.7,188.9,7.3
249.0,187.4,197.0,183.4,189.3,7.0
250.0,187.5,199.2,181.8,189.5,8.9
251.0,186.6,201.5,192.6,193.6,7.5
252.0,190.4,201.4,188.0,193.3,7.2
253.0,192.6,198.7,189.6,193.6,4.7
254.0,195.4,207.8,187.5,196.9,10.2
255.0,194.0,204.1,195.5,197.8,5.4
256.0,194.6,206.7,191.0,197.5,8.3
257.0,193.1,209.3,192.1,198.2,9.7
258.0,194.3,208.9,192.3,198.5,9.1
259.0,195.8,209.2,197.2,200.7,7.3
260.0,200.1,213.0,197.4,203.5,8.3
261.0,200.9,217.4,200.1,206.1,9.7
262.0,200.0,217.5,197.7,205.0,10.8
263.0,205.2,215.3,202.7,207.8,6.7
264.0,206.4,217.4,199.9,207.9,8.8
265.0,205.5,217.9,203.9,209.1,7.7
266.0,208.7,223.6,203.4,211.9,10.5
267.0,210.1,221.3,207.6,213.0,7.3
268.0,210.9,223.5,210.7,215.0,7.4
269.0,214.3,232.2,211.6,219.4,11.2
270.0,212.4,231.0,213.7,219.0,10.4
271.0,216.9,232.6,215.2,221.6,9.6
272.0,217.7,230.1,217.4,221.7,7.2
273.0,224.2,232.7,220.7,225.9,6.2
274.0,224.2,235.4,222.3,227.3,7.1
275.0,223.8,237.4,220.9,227.4,8.8
276.0,226.0,236.4,225.2,229.2,6.2
277.0,231.7,241.9,223.4,232.4,9.3
278.0,230.0,243.8,222.2,232.0,10.9
279.0,232.4,241.8,230.1,234.8,6.2
280.0,228.4,247.9,231.4,235.9,10.5
281.0,231.1,242.3,230.1,234.5,6.8
282.0,238.8,251.4,231.0,240.4,10.3
283.0,237.3,251.7,240.8,243.3,7.5
284.0,241.1,256.0,236.9,244.7,10.1
285.0,244.6,259.4,242.2,248.8,9.3
286.0,241.1,254.5,240.2,245.2,8.0
287.0,242.8,254.3,248.1,248.4,5.7
288.0,242.2,261.0,240.4,247.9,11.4
289.0,243.3,263.2,247.7,251.4,10.5
290.0,245.9,262.0,250.6,252.9,8.3
291.0,243.7,264.4,250.0,252.7,10.6
292.0,245.9,263.3,254.1,254.4,8.7
293.0,252.1,267.9,253.8,258.0,8.7
294.0,255.0,274.0,259.5,262.8,9.9
295.0,253.7,272.3,259.5,261.9,9.5
296.0,251.0,269.7,263.3,261.3,9.5
297.0,261.1,274.7,265.6,267.2,6.9
298.0,255.9,278.5,271.2,268.5,11.5
299.0,262.5,276.8,274.6,271.3,7.7
300.0,262.1,277.2,274.6,271.3,8.1
301.0,264.9,285.4,274.5,274.9,10.3
302.0,266.3,281.1,279.7,275.7,8.2
303.0,270.9,284.8,287.7,281.1,9.0
304.0,269.6,288.5,282.1,280.1,9.6
305.0,266.7,286.8,282.6,278.7,10.6
306.0,272.3,287.8,282.5,280.9,7.9
307.0,270.8,295.5,283.5,283.3,12.4
308.0,269.2,289.8,283.7,280.9,10.6
309.0,267.2,287.2,293.1,282.5,13.5
310.0,275.2,293.4,292.4,287.0,10.3
311.0,280.7,299.3,296.1,292.0,9.9
312.0,280.6,296.7,294.1,290.4,8.7
313.0,290.6,312.6,301.3,301.5,11.0
314.0,284.9,307.6,306.3,299.6,12.7
315.0,291.2,314.9,299.6,301.9,12.0
316.0,294.4,306.0,303.9,301.5,6.2
317.0,292.1,310.8,310.0,304.3,10.6
318.0,300.2,314.4,307.5,307.4,7.1
319.0,300.5,307.4,314.6,307.5,7.1
320.0,304.5,317.4,310.2,310.7,6.5
321.0,308.1,320.7,307.6,312.1,7.4
322.0,312.3,316.9,309.6,313.0,3.7
323.0,316.7,325.2,311.8,317.9,6.8
324.0,313.8,317.8,323.3,318.3,4.7
325.0,328.7,332.5,321.4,327.5,5.7
326.0,324.3,324.0,319.5,322.6,2.7
327.0,325.9,339.9,334.6,333.5,7.1
328.0,337.5,328.6,331.0,332.4,4.6
329.0,338.1,329.7,335.2,334.4,4.3
330.0,351.8,334.1,334.0,340.0,10.2
331.0,347.1,334.6,342.3,341.4,6.3
332.0,350.6,344.9,330.0,341.8,10.6
333.0,354.7,341.1,340.9,345.6,7.9
334.0,359.3,348.9,348.7,352.3,6.0
335.0,353.6,348.1,340.8,347.5,6.5
336.0,357.9,357.9,347.6,354.5,6.0
337.0,365.3,355.4,362.1,360.9,5.1
338.0,368.2,356.9,347.9,357.7,10.2
339.0,363.9,362.9,347.9,358.2,9.0
340.0,368.0,355.6,351.0,358.2,8.8
341.0,366.3,351.9,354.1,357.4,7.8
342.0,362.6,348.0,341.9,350.8,10.6
343.0,367.2,357.8,346.1,357.0,10.6
344.0,362.4,354.9,345.8,354.4,8.3
345.0,353.9,348.7,336.3,346.3,9.1
346.0,354.3,345.8,335.8,345.3,9.3
347.0,345.6,337.0,332.3,338.3,6.7
348.0,333.3,335.9,324.5,331.2,6.0
349.0,327.4,330.7,325.5,327.9,2.6
350.0,316.0,325.3,317.9,319.7,5.0
351.0,311.9,320.0,323.8,318.5,6.1
352.0,303.9,316.3,314.5,311.6,6.7
353.0,291.2,310.5,307.7,303.1,10.4
354.0,287.2,309.1,303.6,300.0,11.4
355.0,283.5,306.5,293.0,294.3,11.6
356.0,273.2,302.0,296.5,290.6,15.3
357.0,269.2,297.0,292.2,286.1,14.8
358.0,262.3,295.7,300.6,286.2,20.8
359.0,256.6,285.0,286.6,276.0,16.9
360.0,250.3,285.2,281.8,272.4,19.3
361.0,243.3,280.8,274.9,266.3,20.2
362.0,242.6,274.7,270.4,262.5,17.4
363.0,237.4,269.9,262.2,256.5,17.0
364.0,232.2,269.8,259.6,253.9,19.4
365.0,227.5,256.3,249.3,244.4,15.0
366.0,223.4,253.4,239.3,238.7,15.0
367.0,217.7,237.7,240.6,232.0,12.5
368.0,211.0,229.8,227.9,222.9,10.3
369.0,206.5,227.1,222.6,218.7,10.8
370.0,196.6,215.0,215.5,209.0,10.7
371.0,192.7,203.2,206.2,200.7,7.1
372.0,182.9,190.6,201.5,191.7,9.3
373.0,178.4,186.4,190.4,185.1,6.1
374.0,168.9,175.1,182.3,175.4,6.7
375.0,162.9,164.1,173.3,166.8,5.7
376.0,158.4,160.1,167.9,162.1,5.1
377.0,153.7,151.3,158.6,154.5,3.7
378.0,147.9,146.4,150.0,148.1,1.8
379.0,142.6,138.8,140.6,140.7,1.9
380.0,136.7,132.2,131.1,133.3,3.0
381.0,130.1,126.0,123.4,126.5,3.4
382.0,122.4,119.8,114.3,118.8,4.1
383.0,118.9,115.8,111.1,115.3,3.9
384.0,113.0,108.3,102.5,107.9,5.2
385.0,106.6,102.4,98.7,102.5,3.9
386.0,100.4,96.1,94.3,96.9,3.1
387.0,97.0,93.5,89.0,93.2,4.0
388.0,93.7,88.5,83.3,88.5,5.2
389.0,89.7,84.2,79.4,84.4,5.2
390.0,86.2,84.4,76.3,82.3,5.2
391.0,82.3,80.5,73.3,78.7,4.8
392.0,79.3,78.0,71.0,76.1,4.5
393.0,75.5,76.0,68.6,73.4,4.1
394.0,71.4,73.0,64.3,69.6,4.6
395.0,69.8,72.0,62.7,68.1,4.9
396.0,66.2,70.2,60.0,65.4,5.1
397.0,63.6,68.5,59.1,63.7,4.7
398.0,60.8,66.8,57.2,61.6,4.8
399.0,59.4,66.3,55.7,60.5,5.4
400.0,57.4,64.9,55.2,59.2,5.1
401.0,55.3,64.4,53.9,57.9,5.7
402.0,54.6,63.4,51.9,56.6,6.0
403.0,52.9,62.0,52.7,55.9,5.3
404.0,52.0,61.3,50.5,54.6,5.9
405.0,50.5,60.7,50.1,53.7,6.0
406.0,50.1,59.2,48.7,52.7,5.7
407.0,48.4,58.6,48.2,51.7,6.0
408.0,48.9,57.8,48.0,51.6,5.4
409.0,47.9,57.1,47.1,50.7,5.6
410.0,46.6,56.7,47.2,50.2,5.7
411.0,45.8,55.9,46.5,49.4,5.6
412.0,46.2,56.9,46.4,49.8,6.1
413.0,45.1,55.5,46.8,49.1,5.6
414.0,44.7,55.6,45.2,48.5,6.2
415.0,45.0,54.6,45.1,48.2,5.5
416.0,44.7,54.7,44.7,48.0,5.8
417.0,44.0,54.3,45.2,47.8,5.6
418.0,43.2,53.8,44.5,47.2,5.8
419.0,42.7,53.5,44.0,46.7,5.9
420.0,42.3,52.5,43.7,46.2,5.5
421.0,42.3,53.1,43.2,46.2,6.0
422.0,42.5,51.6,43.2,45.8,5.1
423.0,42.0,52.0,43.4,45.8,5.4
424.0,41.8,52.0,42.5,45.4,5.7
425.0,42.0,50.7,42.8,45.2,4.8
426.0,41.8,51.6,42.3,45.2,5.6
427.0,40.7,51.8,42.3,44.9,6.0
428.0,41.0,50.6,41.8,44.5,5.3
429.0,40.9,50.8,41.5,44.4,5.5
430.0,40.1,50.4,41.7,44.1,5.5
431.0,39.9,50.3,41.4,43.8,5.6
432.0,39.1,49.6,41.3,43.3,5.5
433.0,38.6,49.5,41.1,43.1,5.8
434.0,39.2,48.9,41.0,43.0,5.2
435.0,39.1,49.5,41.6,43.4,5.5
436.0,38.9,49.0,41.5,43.1,5.2
437.0,38.7,48.3,40.2,42.4,5.2
438.0,39.3,48.9,39.8,42.7,5.4
439.0,38.7,48.6,40.6,42.6,5.3
440.0,38.4,48.6,40.7,42.6,5.3
441.0,38.2,48.7,40.7,42.5,5.5
442.0,37.9,48.2,40.6,42.2,5.4
443.0,38.3,47.8,40.7,42.3,5.0
444.0,37.6,47.6,40.0,41.7,5.3
445.0,37.1,47.4,40.8,41.8,5.2
446.0,37.0,47.3,40.0,41.5,5.3
447.0,37.2,46.9,40.0,41.4,5.0
448.0,36.5,46.5,39.7,40.9,5.1
449.0,37.2,46.6,39.1,40.9,5.0
450.0,36.5,47.2,39.3,41.0,5.5
451.0,36.6,46.3,39.4,40.8,5.0
452.0,36.1,46.2,39.4,40.6,5.2
453.0,36.0,46.1,39.5,40.5,5.1
454.0,36.5,46.3,40.5,41.1,5.0
455.0,36.9,46.8,39.0,40.9,5.2
456.0,37.1,46.4,39.5,41.0,4.9
457.0,37.3,46.1,39.9,41.1,4.5
458.0,36.8,45.7,39.3,40.6,4.6
459.0,36.5,45.5,39.2,40.4,4.6
460.0,36.4,45.7,39.4,40.5,4.7
461.0,36.4,45.6,39.1,40.4,4.8
462.0,36.7,45.7,39.0,40.5,4.7
463.0,36.3,45.0,39.3,40.2,4.4
464.0,35.7,44.0,39.5,39.7,4.2
465.0,35.7,44.0,39.6,39.8,4.1
466.0,35.1,43.9,39.6,39.5,4.4
467.0,34.8,43.5,39.4,39.3,4.3
468.0,35.0,43.4,39.4,39.2,4.2
469.0,35.3,43.5,39.4,39.4,4.1
470.0,36.1,42.3,38.9,39.1,3.1
471.0,36.1,42.7,39.0,39.3,3.3
472.0,36.5,42.5,39.0,39.4,3.0
473.0,36.2,43.0,38.6,39.2,3.5
474.0,36.8,42.2,38.4,39.1,2.8
475.0,36.7,42.8,38.8,39.4,3.1
476.0,37.0,42.7,38.0,39.3,3.0
477.0,36.5,42.3,37.8,38.9,3.1
478.0,36.4,42.7,38.4,39.2,3.3
479.0,36.4,42.4,38.5,39.1,3.0
480.0,36.0,43.1,38.3,39.1,3.6
481.0,36.1,42.5,38.4,39.0,3.2
482.0,36.3,42.7,38.3,39.1,3.3
483.0,36.0,41.9,38.8,38.9,3.0
484.0,36.3,42.2,38.7,39.0,3.0
485.0,36.4,42.4,38.8,39.2,3.1
486.0,36.3,42.6,38.2,39.0,3.2
487.0,35.7,41.9,38.8,38.8,3.1
488.0,35.8,43.0,38.6,39.2,3.7
489.0,35.4,42.2,38.6,38.8,3.4
490.0,35.5,42.2,38.9,38.9,3.3
491.0,35.3,42.2,38.9,38.8,3.5
492.0,35.1,41.5,38.2,38.3,3.2
493.0,35.4,40.7,38.1,38.1,2.7
494.0,34.8,41.3,38.4,38.2,3.3
495.0,34.6,40.7,38.8,38.1,3.1
496.0,35.9,40.5,37.7,38.0,2.3
497.0,35.4,40.4,37.3,37.7,2.5
498.0,34.9,41.0,37.4,37.8,3.1
499.0,35.6,40.9,36.7,37.7,2.8
500.0,35.7,41.1,36.2,37.7,3.0
501.0,36.5,40.8,36.4,37.9,2.5
502.0,36.1,41.5,36.4,38.0,3.0
503.0,35.4,40.8,36.0,37.4,3.0
504.0,35.6,40.2,36.1,37.3,2.6
505.0,35.9,40.2,36.5,37.5,2.3
506.0,35.5,40.2,35.9,37.2,2.6
507.0,35.6,39.9,35.8,37.1,2.4
508.0,35.2,40.7,35.7,37.2,3.1
509.0,35.9,39.4,36.0,37.1,2.0
510.0,35.3,39.3,36.3,37.0,2.1
511.0,35.4,39.4,37.5,37.4,2.0
512.0,35.3,38.7,37.6,37.2,1.7
513.0,35.0,38.8,37.8,37.2,1.9
514.0,35.3,39.1,38.5,37.6,2.0
515.0,35.4,39.6,38.6,37.9,2.2
516.0,34.7,38.7,38.8,37.4,2.4
517.0,34.0,38.5,39.4,37.3,2.9
518.0,33.9,39.9,39.5,37.7,3.3
519.0,34.0,39.0,39.5,37.5,3.0
520.0,34.2,39.3,39.3,37.6,2.9
521.0,33.8,40.0,38.9,37.5,3.3
522.0,33.8,39.9,38.4,37.4,3.1
523.0,33.5,40.4,37.8,37.2,3.5
524.0,33.8,40.3,37.5,37.2,3.3
525.0,33.8,40.3,37.1,37.1,3.3
526.0,33.1,40.5,36.3,36.6,3.7
527.0,32.8,39.5,37.1,36.5,3.3
528.0,32.6,39.8,36.2,36.2,3.6
529.0,32.4,39.8,35.9,36.0,3.7
530.0,32.6,39.4,35.9,36.0,3.4
531.0,33.3,39.7,35.4,36.2,3.2
532.0,33.7,39.3,35.4,36.1,2.9
533.0,33.9,39.5,35.3,36.2,2.9
534.0,33.6,39.6,36.0,36.4,3.1
535.0,33.9,39.3,35.1,36.1,2.8
536.0,33.6,39.0,34.9,35.9,2.8
537.0,33.6,39.3,35.2,36.0,2.9
538.0,34.8,38.8,35.3,36.3,2.2
539.0,34.5,39.0,35.8,36.4,2.3
540.0,35.9,38.5,35.5,36.7,1.6
541.0,35.1,38.6,35.8,36.5,1.8
542.0,34.6,38.1,34.7,35.8,2.0
543.0,34.9,38.5,34.1,35.8,2.3
544.0,34.9,38.0,34.6,35.8,1.9
545.0,34.8,38.2,34.2,35.7,2.2
546.0,34.7,37.9,34.8,35.8,1.8
547.0,35.0,38.0,34.3,35.7,2.0
548.0,35.5,38.1,34.5,36.0,1.9
549.0,35.5,38.1,34.2,36.0,2.0
550.0,35.7,38.0,34.1,35.9,1.9
551.0,35.8,38.5,34.1,36.1,2.2
552.0,35.8,39.1,33.3,36.1,2.9
553.0,35.9,38.9,33.7,36.1,2.6
554.0,35.9,38.9,33.8,36.2,2.5
555.0,35.8,38.3,33.5,35.9,2.4
556.0,35.7,38.5,33.7,36.0,2.5
557.0,36.0,38.2,34.3,36.2,2.0
558.0,35.9,38.3,34.2,36.1,2.1
559.0,34.8,38.2,34.5,35.8,2.0
560.0,35.0,38.0,34.8,35.9,1.8
561.0,34.6,38.1,34.9,35.9,2.0
562.0,34.6,37.9,35.7,36.1,1.7
563.0,34.2,37.8,35.8,35.9,1.8
564.0,34.3,37.8,35.9,36.0,1.7
565.0,34.1,36.8,35.7,35.5,1.4
566.0,34.0,36.5,35.4,35.3,1.3
567.0,34.4,36.0,35.5,35.3,0.8
568.0,33.8,36.2,36.1,35.4,1.3
569.0,33.9,35.7,35.9,35.2,1.1
570.0,33.7,36.0,36.0,35.2,1.3
571.0,33.7,36.1,35.6,35.1,1.2
572.0,33.7,36.1,36.1,35.3,1.3
573.0,33.7,36.3,35.9,35.3,1.4
574.0,33.3,36.2,35.9,35.1,1.6
575.0,33.7,37.4,35.1,35.4,1.9
576.0,33.7,36.9,35.4,35.3,1.6
577.0,33.5,36.6,34.7,34.9,1.6
578.0,34.1,36.5,34.6,35.1,1.3
579.0,33.7,36.2,34.9,34.9,1.2
580.0,33.9,36.9,34.5,35.1,1.6
581.0,33.5,36.5,34.5,34.8,1.5
582.0,33.8,36.3,34.8,34.9,1.3
583.0,32.9,36.5,35.1,34.8,1.8
584.0,32.6,36.1,34.7,34.5,1.7
585.0,33.1,36.4,35.5,35.0,1.7
586.0,33.5,35.9,35.3,34.9,1.3
587.0,32.7,35.8,35.6,34.7,1.8
588.0,32.3,36.0,35.5,34.6,2.0
589.0,32.5,35.7,36.1,34.8,2.0
590.0,32.5,36.1,34.6,34.4,1.8
591.0,32.2,35.8,35.2,34.4,1.9
592.0,32.6,36.0,35.2,34.6,1.8
593.0,32.9,36.1,34.9,34.6,1.6
594.0,33.3,35.6,34.9,34.6,1.2
595.0,33.1,35.5,34.7,34.4,1.2
596.0,33.3,35.1,34.3,34.3,0.9
597.0,33.5,34.7,33.9,34.0,0.6
598.0,32.6,34.8,33.9,33.8,1.1
599.0,32.7,34.7,33.5,33.6,1.0
600.0,32.6,35.3,33.4,33.8,1.4
601.0,32.5,35.8,34.0,34.1,1.6
602.0,32.3,36.5,33.9,34.2,2.1
603.0,32.6,37.1,33.7,34.5,2.3
604.0,32.2,37.6,34.4,34.7,2.7
605.0,33.0,38.2,33.6,34.9,2.8
606.0,32.8,38.1,33.8,34.9,2.8
607.0,32.6,39.7,34.4,35.6,3.7
608.0,32.9,39.0,34.4,35.4,3.2
609.0,33.0,39.8,35.3,36.0,3.5
610.0,33.3,39.6,34.8,35.9,3.3
611.0,33.4,39.5,34.6,35.8,3.2
612.0,32.3,38.5,34.6,35.1,3.1
613.0,32.5,38.6,35.1,35.4,3.1
614.0,32.3,38.3,35.3,35.3,3.0
615.0,31.9,37.8,35.5,35.1,3.0
616.0,31.7,38.1,35.6,35.1,3.3
617.0,31.6,37.5,35.1,34.7,3.0
618.0,32.2,37.1,35.8,35.1,2.5
619.0,32.1,37.0,35.7,34.9,2.6
620.0,32.4,36.6,35.3,34.8,2.2
621.0,32.7,36.8,35.3,34.9,2.1
622.0,33.6,37.0,34.6,35.1,1.7
623.0,32.8,36.5,35.0,34.8,1.8
624.0,33.1,36.1,34.8,34.7,1.5
625.0,32.8,36.1,34.2,34.4,1.7
626.0,32.5,37.0,33.8,34.4,2.3
627.0,32.9,36.6,34.2,34.6,1.9
628.0,32.6,36.4,33.5,34.2,2.0
629.0,32.3,35.7,33.6,33.8,1.7
630.0,31.8,36.0,33.0,33.6,2.2
631.0,31.6,36.4,32.9,33.7,2.5
632.0,31.9,36.3,33.1,33.8,2.3
633.0,31.6,35.9,32.7,33.4,2.2
634.0,31.8,36.7,32.8,33.8,2.6
635.0,31.8,36.2,33.1,33.7,2.3
636.0,31.6,35.8,32.7,33.4,2.2
637.0,31.3,35.7,33.2,33.4,2.2
638.0,31.2,35.8,32.6,33.2,2.4
639.0,31.7,35.5,32.8,33.3,1.9
640.0,31.8,35.2,33.1,33.4,1.7
641.0,32.8,34.9,32.9,33.5,1.2
642.0,32.4,35.6,32.6,33.5,1.8
643.0,32.4,35.7,32.5,33.5,1.8
644.0,32.6,35.6,33.0,33.7,1.7
645.0,32.6,35.8,32.4,33.6,1.9
646.0,32.8,37.0,33.2,34.3,2.3
647.0,32.8,37.2,32.5,34.2,2.6
648.0,31.9,36.6,33.1,33.9,2.4
649.0,31.7,36.2,33.1,33.7,2.3
650.0,32.1,36.0,33.0,33.7,2.1
651.0,32.1,36.4,33.3,33.9,2.2
652.0,31.7,36.5,32.6,33.6,2.5
653.0,31.8,36.5,32.8,33.7,2.5
654.0,31.7,36.7,32.6,33.7,2.7
655.0,31.3,36.8,32.7,33.6,2.8
656.0,30.8,36.6,33.2,33.5,2.9
657.0,30.6,36.8,33.0,33.5,3.1
658.0,30.6,36.3,33.9,33.6,2.8
659.0,30.7,36.9,33.4,33.7,3.1
660.0,30.4,36.9,32.6,33.3,3.3
661.0,30.2,36.7,32.6,33.2,3.3
662.0,29.7,37.1,32.8,33.2,3.7
663.0,29.4,36.9,32.8,33.0,3.8
664.0,29.6,37.1,33.0,33.2,3.8
665.0,29.1,37.8,32.9,33.3,4.3
666.0,28.9,38.1,32.3,33.1,4.7
667.0,28.8,38.3,32.4,33.2,4.8
668.0,29.5,38.1,31.8,33.1,4.5
669.0,29.5,38.3,32.7,33.5,4.5
670.0,29.3,38.9,32.5,33.6,4.9
671.0,29.8,38.4,32.4,33.6,4.4
672.0,30.3,39.4,32.1,33.9,4.8
673.0,29.7,39.0,32.5,33.7,4.8
674.0,29.9,39.5,31.7,33.7,5.1
675.0,29.8,39.7,31.5,33.7,5.3
676.0,29.9,39.3,31.3,33.5,5.1
677.0,29.5,39.6,31.6,33.6,5.3
678.0,30.0,39.1,32.1,33.7,4.8
679.0,30.1,38.5,31.9,33.5,4.4
680.0,30.1,39.4,32.1,33.9,4.9
681.0,30.0,39.1,32.4,33.8,4.7
682.0,30.2,39.2,32.5,34.0,4.7
683.0,30.3,38.6,32.2,33.7,4.4
684.0,30.1,39.3,32.8,34.1,4.7
685.0,29.9,39.1,33.4,34.2,4.7
686.0,29.8,39.2,33.6,34.2,4.7
687.0,30.0,39.1,33.8,34.3,4.6
688.0,30.3,39.0,33.5,34.3,4.4
689.0,30.4,39.1,33.8,34.4,4.4
690.0,29.6,38.2,34.2,34.0,4.3
691.0,30.1,38.5,33.7,34.1,4.2
692.0,29.9,38.9,33.8,34.2,4.5
693.0,29.9,38.9,33.9,34.2,4.5
694.0,30.3,38.0,33.3,33.9,3.9
695.0,30.6,38.0,33.6,34.1,3.7
696.0,30.1,38.0,33.9,34.0,3.9
697.0,30.3,38.2,33.6,34.0,4.0
698.0,32.2,38.1,33.1,34.5,3.2
699.0,31.8,39.1,33.3,34.7,3.9
700.0,31.9,38.9,33.5,34.7,3.7
701.0,32.3,39.2,33.4,34.9,3.7
702.0,32.2,38.9,33.7,34.9,3.5
703.0,32.3,39.2,33.1,34.9,3.8
704.0,32.0,38.9,33.0,34.7,3.7
705.0,32.2,38.9,32.8,34.6,3.7
706.0,32.3,39.4,32.4,34.7,4.0
707.0,31.9,40.0,32.9,34.9,4.4
708.0,31.7,39.4,32.9,34.7,4.1
709.0,31.7,39.1,32.6,34.5,4.1
710.0,31.8,39.5,32.5,34.6,4.3
711.0,31.7,38.8,32.3,34.3,3.9
712.0,31.6,38.4,32.8,34.3,3.6
713.0,31.8,38.1,32.5,34.2,3.5
714.0,31.5,38.7,32.5,34.2,3.9
715.0,31.5,37.7,32.5,33.9,3.3
716.0,31.6,37.8,32.7,34.0,3.3
717.0,32.3,38.6,32.5,34.5,3.6
718.0,31.9,38.7,33.2,34.6,3.6
719.0,31.9,38.7,33.3,34.6,3.6
720.0,32.0,38.6,33.6,34.7,3.5
721.0,32.5,38.6,34.2,35.1,3.2
722.0,31.9,38.2,33.8,34.7,3.2
723.0,32.0,38.2,33.4,34.5,3.2
724.0,32.4,37.9,33.6,34.6,2.9
725.0,32.8,37.9,33.3,34.7,2.8
726.0,33.0,38.7,32.8,34.8,3.4
727.0,32.5,37.9,32.6,34.3,3.1
728.0,32.4,37.9,32.1,34.1,3.3
729.0,31.5,38.2,31.5,33.7,3.8
730.0,31.9,38.0,31.3,33.7,3.7
731.0,32.1,38.0,31.1,33.7,3.7
732.0,32.4,37.8,30.7,33.6,3.7
733.0,32.2,37.5,30.9,33.5,3.5
734.0,31.8,38.1,31.3,33.7,3.8
735.0,31.3,38.2,31.2,33.6,4.0
736.0,30.9,38.0,31.9,33.6,3.8
737.0,30.8,37.6,31.4,33.3,3.8
738.0,30.8,38.0,31.5,33.4,3.9
739.0,30.5,38.3,31.6,33.5,4.2
740.0,30.4,38.0,31.7,33.4,4.1
741.0,31.4,37.3,31.8,33.5,3.3
742.0,30.9,37.4,32.0,33.4,3.5
743.0,30.8,37.2,32.4,33.5,3.3
744.0,31.1,37.8,32.0,33.6,3.6
745.0,31.2,37.5,31.9,33.6,3.4
746.0,31.5,37.6,32.1,33.7,3.4
747.0,31.7,37.0,32.1,33.6,2.9
748.0,32.2,37.3,32.7,34.1,2.8
749.0,31.3,37.4,32.3,33.7,3.3
750.0,31.2,37.6,32.9,33.9,3.3
751.0,31.7,37.4,32.8,34.0,3.0
752.0,32.2,37.8,32.6,34.2,3.1
753.0,31.4,38.4,32.9,34.2,3.7
754.0,31.3,38.3,33.0,34.2,3.6
755.0,30.8,37.9,33.2,34.0,3.6
756.0,30.8,38.5,33.5,34.2,3.9
757.0,31.3,37.9,33.6,34.3,3.4
758.0,31.2,39.1,33.6,34.6,4.1
759.0,30.5,38.1,33.5,34.0,3.8
760.0,30.1,38.9,33.3,34.1,4.4
761.0,30.6,38.9,32.8,34.1,4.3
762.0,30.4,38.3,32.2,33.7,4.1
763.0,30.1,38.8,32.5,33.8,4.5
764.0,29.9,38.2,32.0,33.4,4.3
765.0,30.3,38.0,32.5,33.6,4.0
766.0,29.9,38.5,32.0,33.5,4.5
767.0,29.9,38.1,32.0,33.4,4.2
768.0,29.6,39.0,32.0,33.5,4.9
769.0,30.0,38.4,31.7,33.4,4.4
770.0,30.1,38.6,31.5,33.4,4.6
771.0,29.7,39.0,31.1,33.3,5.0
772.0,30.1,39.1,31.1,33.4,5.0
773.0,29.6,38.7,31.3,33.2,4.9
774.0,29.7,39.0,31.4,33.4,5.0
775.0,29.8,39.4,31.3,33.5,5.2
776.0,29.5,38.7,31.3,33.2,4.9
777.0,30.0,39.2,32.1,33.8,4.8
778.0,29.8,38.8,32.0,33.6,4.7
779.0,29.7,39.5,32.4,33.8,5.1
780.0,29.9,39.7,32.5,34.0,5.0
781.0,30.2,39.1,32.5,33.9,4.6
782.0,30.0,40.2,32.0,34.1,5.4
783.0,29.9,39.3,32.4,33.9,4.9
784.0,29.7,39.2,32.3,33.7,4.9
785.0,29.6,38.8,32.4,33.6,4.7
786.0,29.9,39.5,32.2,33.9,5.0
787.0,29.8,38.9,31.6,33.4,4.8
788.0,29.7,38.5,31.9,33.4,4.6
789.0,30.4,39.0,31.4,33.6,4.7
790.0,30.3,38.8,31.2,33.5,4.7
791.0,30.7,38.8,31.4,33.6,4.5
792.0,30.4,39.2,30.9,33.5,5.0
793.0,30.7,39.4,30.3,33.5,5.2
794.0,30.3,39.0,30.8,33.4,4.9
795.0,29.8,39.1,30.7,33.2,5.2
796.0,29.6,39.6,30.5,33.2,5.5
797.0,29.1,38.5,31.0,32.9,5.0
798.0,28.6,38.9,30.6,32.7,5.5
799.0,29.1,38.7,31.2,33.0,5.0
800.0,28.9,38.8,30.2,32.6,5.4
801.0,28.3,38.0,30.7,32.3,5.0
802.0,28.6,38.5,30.8,32.6,5.2
803.0,29.6,37.9,31.4,33.0,4.4
804.0,29.3,38.5,31.4,33.1,4.8
805.0,29.4,39.0,31.3,33.2,5.1
806.0,30.5,39.2,31.4,33.7,4.8
807.0,30.3,38.9,31.0,33.4,4.8
808.0,30.1,38.8,31.3,33.4,4.7
809.0,30.6,39.7,32.0,34.1,4.9
810.0,30.8,40.1,31.4,34.1,5.2
811.0,30.5,39.7,31.7,34.0,5.0
812.0,30.3,40.4,31.9,34.2,5.4
813.0,30.6,40.8,31.7,34.4,5.6
814.0,30.7,40.3,32.4,34.5,5.1
815.0,30.5,39.7,31.8,34.0,5.0
816.0,30.6,39.3,32.1,34.0,4.7
817.0,30.7,39.2,31.8,33.9,4.6
818.0,30.8,38.9,32.3,34.0,4.3
819.0,31.0,38.6,31.6,33.8,4.2
820.0,30.7,39.1,31.7,33.8,4.6
821.0,30.4,38.9,31.3,33.6,4.6
822.0,30.2,38.5,30.7,33.1,4.7
823.0,30.7,37.7,30.7,33.0,4.0
824.0,29.7,38.1,30.2,32.6,4.8
825.0,30.3,38.1,31.2,33.2,4.2
826.0,30.2,37.1,30.7,32.7,3.8
827.0,30.5,37.8,30.6,32.9,4.2
828.0,30.9,37.0,30.7,32.8,3.6
829.0,30.7,37.4,30.4,32.8,3.9
830.0,30.8,38.0,30.4,33.1,4.3
831.0,30.4,37.0,31.1,32.9,3.6
832.0,30.3,37.4,30.7,32.8,4.0
833.0,30.3,37.5,31.5,33.1,3.8
834.0,29.9,37.9,31.1,33.0,4.3
835.0,29.9,36.6,31.3,32.6,3.5
836.0,30.0,37.3,31.3,32.9,3.9
837.0,30.1,37.7,31.7,33.2,4.0
838.0,30.0,37.7,31.8,33.2,4.0
839.0,30.1,37.5,31.6,33.1,3.9
840.0,31.0,36.9,32.0,33.3,3.1
841.0,30.4,37.4,31.4,33.1,3.8
842.0,30.5,38.0,31.6,33.4,4.1
843.0,30.2,37.1,31.9,33.1,3.6
844.0,30.5,36.5,32.1,33.0,3.1
845.0,30.1,36.6,31.2,32.7,3.5
846.0,30.3,37.1,31.7,33.0,3.6
847.0,30.4,37.0,32.0,33.1,3.5
848.0,30.1,36.7,31.2,32.7,3.5
849.0,29.8,36.6,31.3,32.6,3.6
850.0,29.4,36.7,31.4,32.5,3.8
851.0,29.7,37.3,31.2,32.7,4.0
852.0,29.4,36.7,31.2,32.4,3.8
853.0,29.0,37.3,31.0,32.4,4.3
854.0,29.4,37.5,30.5,32.5,4.4
855.0,30.4,37.5,30.7,32.9,4.0
856.0,30.1,37.7,30.4,32.7,4.3
857.0,30.7,37.5,30.9,33.0,3.8
858.0,31.2,37.3,30.6,33.1,3.7
859.0,31.7,37.7,31.8,33.7,3.4
860.0,31.0,37.3,31.4,33.2,3.5
861.0,30.9,36.8,30.9,32.9,3.4
862.0,31.4,36.6,32.7,33.6,2.7
863.0,31.0,36.6,31.8,33.2,3.0
864.0,31.0,36.6,31.8,33.1,3.0
865.0,30.7,36.0,32.1,33.0,2.8
866.0,30.8,36.8,32.1,33.2,3.2
867.0,30.4,36.7,32.5,33.2,3.2
868.0,30.4,36.6,32.1,33.1,3.2
869.0,30.1,36.9,32.3,33.1,3.5
870.0,30.1,36.4,31.9,32.8,3.2
871.0,29.6,36.4,32.0,32.7,3.5
872.0,29.1,36.6,31.8,32.5,3.8
873.0,28.7,36.4,32.1,32.4,3.9
874.0,29.0,36.2,32.1,32.4,3.6
875.0,28.7,36.9,32.4,32.6,4.1
876.0,29.2,36.6,32.7,32.8,3.7
877.0,29.0,36.5,33.2,32.9,3.8
878.0,29.3,36.9,33.1,33.1,3.8
879.0,29.2,37.1,33.6,33.3,4.0
880.0,29.3,36.9,33.2,33.1,3.8
881.0,29.6,36.7,33.7,33.4,3.6
882.0,29.8,37.3,33.6,33.5,3.7
883.0,29.6,37.2,33.2,33.3,3.8
884.0,30.3,37.1,32.7,33.4,3.5
885.0,30.3,37.3,32.0,33.2,3.6
886.0,30.8,37.4,32.7,33.6,3.4
887.0,31.1,37.1,31.9,33.4,3.2
888.0,31.5,36.5,31.6,33.2,2.8
889.0,31.2,36.3,32.2,33.2,2.7
890.0,31.3,35.7,32.2,33.1,2.4
891.0,31.2,35.7,31.9,32.9,2.4
892.0,32.0,35.7,32.2,33.3,2.1
893.0,31.5,35.6,31.6,32.9,2.3
894.0,31.3,35.6,30.8,32.6,2.7
895.0,31.3,35.7,31.0,32.7,2.6
896.0,30.9,35.8,31.2,32.7,2.7
897.0,30.8,36.0,30.4,32.4,3.1
898.0,30.9,36.6,30.8,32.8,3.3
899.0,31.1,35.7,31.0,32.6,2.7
900.0,31.6,36.1,31.9,33.2,2.6
901.0,30.0,36.4,31.3,32.6,3.4
902.0,29.7,36.2,32.9,32.9,3.3
903.0,30.1,36.6,32.4,33.0,3.3
904.0,29.8,36.5,32.2,32.8,3.4
905.0,29.8,36.3,32.1,32.7,3.3
906.0,29.7,36.0,31.9,32.5,3.2
907.0,29.5,36.6,32.6,32.9,3.5
908.0,30.0,36.2,32.0,32.8,3.1
909.0,29.8,37.0,32.1,32.9,3.7
910.0,29.8,36.8,32.4,33.0,3.5
911.0,29.9,37.0,32.2,33.0,3.7
912.0,30.0,37.3,32.4,33.2,3.7
913.0,30.0,37.9,31.8,33.2,4.1
914.0,29.9,37.8,32.4,33.3,4.1
915.0,30.1,37.8,32.1,33.3,4.0
916.0,30.8,37.9,31.8,33.5,3.8
917.0,30.4,37.9,32.1,33.5,3.9
918.0,29.9,37.8,32.0,33.2,4.1
919.0,29.4,37.9,32.5,33.3,4.3
920.0,29.0,37.4,32.4,32.9,4.2
921.0,29.3,36.9,32.1,32.8,3.8
922.0,30.0,37.0,32.8,33.3,3.5
923.0,29.2,37.5,32.6,33.1,4.2
924.0,28.7,37.7,32.7,33.0,4.5
925.0,29.2,37.4,32.8,33.1,4.1
926.0,29.0,37.5,32.4,32.9,4.3
927.0,29.0,38.0,32.7,33.2,4.6
928.0,29.2,38.0,32.7,33.3,4.4
929.0,28.8,37.9,32.7,33.1,4.5
930.0,28.9,37.0,31.8,32.6,4.1
931.0,29.2,37.3,31.9,32.8,4.1
932.0,29.6,36.3,32.2,32.7,3.4
933.0,30.0,36.4,31.5,32.6,3.3
934.0,29.8,35.9,32.0,32.6,3.1
935.0,30.1,35.7,31.5,32.4,2.9
936.0,30.1,35.6,32.0,32.6,2.8
937.0,30.1,35.0,31.6,32.3,2.5
938.0,29.9,34.3,32.0,32.1,2.2
939.0,29.6,33.7,32.0,31.7,2.1
940.0,29.6,33.9,31.7,31.7,2.1
941.0,29.2,33.7,31.6,31.5,2.3
942.0,29.3,33.2,31.2,31.3,2.0
943.0,29.4,33.7,31.7,31.6,2.1
944.0,29.4,33.8,31.4,31.5,2.2
945.0,29.4,33.8,31.9,31.7,2.2
946.0,28.9,34.1,32.3,31.8,2.7
947.0,29.2,34.4,31.9,31.9,2.6
948.0,29.4,34.1,32.2,31.9,2.3
949.0,29.4,33.6,32.1,31.7,2.1
950.0,29.2,34.1,32.1,31.8,2.5
951.0,29.1,34.2,31.8,31.7,2.5
952.0,29.1,34.0,31.8,31.6,2.5
953.0,29.1,34.1,31.7,31.6,2.5
954.0,29.3,34.2,31.1,31.5,2.5
955.0,29.9,33.7,31.8,31.8,1.9
956.0,29.4,34.5,31.8,31.9,2.6
957.0,29.9,34.4,31.6,32.0,2.3
958.0,29.6,34.1,31.8,31.8,2.3
959.0,29.5,34.7,32.4,32.2,2.6
960.0,29.0,34.5,32.5,32.0,2.8
961.0,28.6,34.5,32.4,31.8,3.0
962.0,28.9,34.8,32.9,32.2,3.0
963.0,28.9,34.7,33.0,32.2,3.0
964.0,28.6,35.9,33.3,32.6,3.7
965.0,28.3,35.3,33.6,32.4,3.6
966.0,28.4,36.1,33.9,32.8,4.0
967.0,28.8,35.4,33.6,32.6,3.4
968.0,28.6,34.9,33.7,32.4,3.3
969.0,28.4,35.2,33.3,32.3,3.5
970.0,28.7,34.5,33.6,32.3,3.2
971.0,28.8,34.2,33.7,32.2,3.0
972.0,28.6,34.2,34.0,32.3,3.2
973.0,28.9,34.5,33.9,32.5,3.1
974.0,28.5,34.8,34.3,32.5,3.5
975.0,28.6,35.2,34.5,32.8,3.6
976.0,28.8,35.2,34.7,32.9,3.6
977.0,28.2,34.9,35.0,32.7,3.9
978.0,28.7,35.1,35.7,33.2,3.9
979.0,28.3,35.2,36.2,33.2,4.3
980.0,27.9,35.7,35.5,33.0,4.4
981.0,28.3,36.1,35.0,33.2,4.2
982.0,28.4,35.7,35.0,33.0,4.1
983.0,28.5,36.0,34.9,33.1,4.1
984.0,28.5,36.7,34.9,33.4,4.3
985.0,28.4,36.3,34.6,33.1,4.2
986.0,28.8,36.3,34.2,33.1,3.9
987.0,28.9,36.9,34.2,33.3,4.0
988.0,29.3,36.3,33.7,33.1,3.5
989.0,29.4,35.8,33.0,32.7,3.2
990.0,29.6,36.2,33.0,32.9,3.3
991.0,29.5,36.0,32.6,32.7,3.2
992.0,29.0,36.4,32.6,32.7,3.7
993.0,29.5,36.8,32.0,32.8,3.7
994.0,28.7,36.6,32.1,32.5,4.0
995.0,28.3,36.6,32.1,32.3,4.1
996.0,28.2,36.5,31.5,32.1,4.2
997.0,28.3,36.5,31.6,32.1,4.1
998.0,28.4,35.7,32.5,32.2,3.7
999.0,28.5,36.3,32.0,32.3,3.9
1000.0,28.3,37.2,31.7,32.4,4.5
1001.0,28.4,35.8,32.1,32.1,3.7
1002.0,27.6,36.0,32.3,32.0,4.2
1003.0,28.0,36.1,31.9,32.0,4.1
1004.0,27.9,35.8,31.6,31.8,3.9
1005.0,27.9,36.9,32.4,32.4,4.5
1006.0,28.2,37.1,31.1,32.1,4.5
1007.0,28.1,37.8,31.1,32.4,4.9
1008.0,28.0,37.8,31.2,32.3,5.0
1009.0,27.8,37.7,31.1,32.2,5.0
1010.0,27.6,38.0,31.7,32.4,5.2
1011.0,28.1,37.9,31.5,32.5,5.0
1012.0,28.0,37.0,32.0,32.3,4.5
1013.0,28.0,37.5,31.5,32.3,4.8
1014.0,27.9,37.4,31.4,32.2,4.8
1015.0,27.7,37.2,32.1,32.3,4.8
1016.0,28.4,37.9,31.6,32.6,4.9
1017.0,28.0,37.2,31.8,32.3,4.6
1018.0,28.2,37.7,31.5,32.5,4.8
1019.0,27.6,37.1,31.4,32.0,4.8
1020.0,27.9,37.1,31.3,32.1,4.6
1021.0,27.9,36.6,30.5,31.7,4.4
1022.0,28.4,36.1,31.0,31.9,3.9
1023.0,29.2,36.3,31.3,32.3,3.6
1024.0,29.0,36.2,31.3,32.1,3.7
1025.0,29.1,35.9,31.1,32.0,3.5
1026.0,29.7,37.1,31.3,32.7,3.9
1027.0,29.6,36.7,31.5,32.6,3.7
1028.0,29.5,37.4,31.1,32.7,4.2
1029.0,29.6,37.6,31.6,32.9,4.2
1030.0,29.6,37.2,31.3,32.7,4.0
1031.0,29.6,37.6,,33.6,5.7
1032.0,29.3,37.2,,33.2,5.6
1033.0,29.5,36.7,,33.1,5.1
1034.0,29.0,36.8,,32.9,5.5
1035.0,29.1,36.8,,33.0,5.4
1036.0,29.7,36.5,,33.1,4.8
1037.0,29.4,36.3,,32.9,4.9
1038.0,29.3,36.1,,32.7,4.7
1039.0,29.4,35.8,,32.6,4.6
1040.0,29.0,36.2,,32.6,5.1
1041.0,29.2,36.5,,32.8,5.2
1042.0,29.7,36.6,,33.2,4.9
1043.0,29.1,35.9,,32.5,4.8
1044.0,29.1,36.8,,33.0,5.4
1045.0,29.5,36.5,,33.0,4.9
1046.0,29.5,36.8,,33.2,5.1
1047.0,29.4,36.9,,33.1,5.3
1048.0,29.5,36.7,,33.1,5.1
1049.0,29.0,36.6,,32.8,5.4
1050.0,29.1,36.6,,32.8,5.3
1051.0,28.7,36.2,,32.5,5.3
1052.0,28.4,35.8,,32.1,5.3
1053.0,28.5,35.7,,32.1,5.1
1054.0,28.4,36.7,,32.6,5.9
1055.0,28.4,36.0,,32.2,5.4
1056.0,28.3,36.0,,32.1,5.4
1057.0,28.1,35.9,,32.0,5.5
1058.0,28.5,36.2,,32.3,5.5
1059.0,27.9,35.5,,31.7,5.4
1060.0,28.3,35.1,,31.7,4.8
1061.0,28.4,35.4,,31.9,5.0
1062.0,28.7,34.5,,31.6,4.1
1063.0,29.4,35.1,,32.3,4.0
1064.0,28.8,34.7,,31.7,4.2
1065.0,28.7,35.5,,32.1,4.8
1066.0,29.2,35.5,,32.4,4.5
1067.0,29.1,36.9,,33.0,5.5
1068.0,29.3,37.5,,33.4,5.8
1069.0,29.1,37.7,,33.4,6.1
1070.0,29.5,37.6,,33.5,5.7
1071.0,29.2,37.3,,33.2,5.7
1072.0,28.7,37.0,,32.9,5.9
1073.0,28.5,37.9,,33.2,6.6
1074.0,28.6,38.0,,33.3,6.6
1075.0,27.9,38.5,,33.2,7.5
1076.0,27.8,38.1,,32.9,7.3
1077.0,28.1,38.4,,33.2,7.3
1078.0,28.4,37.2,,32.8,6.3
1079.0,29.0,38.1,,33.6,6.4
1080.0,28.5,36.3,,32.4,5.5
1081.0,28.4,36.3,,32.4,5.6
1082.0,28.9,35.8,,32.3,4.9
1083.0,29.2,35.7,,32.4,4.6
1084.0,28.9,35.8,,32.4,4.9
1085.0,29.1,35.6,,32.3,4.6
1086.0,29.5,35.6,,32.6,4.3
1087.0,29.7,35.5,,32.6,4.1
1088.0,29.6,35.7,,32.7,4.4
1089.0,29.8,36.4,,33.1,4.6
1090.0,29.1,36.2,,32.6,5.0
1091.0,29.2,36.3,,32.8,5.0
1092.0,29.2,36.1,,32.6,4.9
1093.0,29.4,36.4,,32.9,4.9
1094.0,29.2,36.0,,32.6,4.9
1095.0,29.0,36.5,,32.7,5.3
1096.0,29.2,36.5,,32.9,5.2
1097.0,29.1,35.7,,32.4,4.7
1098.0,29.1,36.3,,32.7,5.1
1099.0,29.0,36.0,,32.5,4.9
1100.0,28.7,35.7,,32.2,4.9
1101.0,29.0,35.9,,32.5,4.9
1102.0,29.0,36.4,,32.7,5.2
1103.0,28.7,35.8,,32.3,5.1
1104.0,28.9,36.1,,32.5,5.1
1105.0,29.0,36.6,,32.8,5.3
1106.0,29.0,35.9,,32.4,4.9
1107.0,28.8,36.5,,32.6,5.4
1108.0,28.8,35.6,,32.2,4.8
1109.0,28.6,36.0,,32.3,5.2
1110.0,28.8,36.2,,32.5,5.2
1111.0,28.7,35.5,,32.1,4.9
1112.0,28.5,36.0,,32.3,5.3
1113.0,28.6,35.6,,32.1,4.9
1114.0,28.5,36.0,,32.3,5.3
1115.0,28.3,35.7,,32.0,5.2
1116.0,28.2,35.9,,32.0,5.5
1117.0,28.1,35.7,,31.9,5.4
1118.0,28.2,35.3,,31.8,5.0
1119.0,28.2,35.0,,31.6,4.9
1120.0,28.3,34.8,,31.5,4.6
1121.0,27.9,34.9,,31.4,4.9
1122.0,27.8,35.2,,31.5,5.2
1123.0,28.1,35.5,,31.8,5.2
1124.0,28.0,36.0,,32.0,5.6
1125.0,27.7,36.4,,32.1,6.1
1126.0,27.8,36.8,,32.3,6.4
1127.0,27.9,37.0,,32.4,6.4
1128.0,28.4,36.7,,32.6,5.9
1129.0,28.4,37.4,,32.9,6.4
1130.0,28.7,37.7,,33.2,6.4
1131.0,28.2,37.6,,32.9,6.7
1132.0,28.3,37.8,,33.0,6.7
1133.0,28.5,38.2,,33.3,6.8
1134.0,28.5,38.5,,33.5,7.1
1135.0,28.6,38.2,,33.4,6.8
1136.0,28.4,37.9,,33.1,6.6
1137.0,28.9,38.5,,33.7,6.8
1138.0,28.3,38.7,,33.5,7.4
1139.0,28.8,39.4,,34.1,7.6
1140.0,28.9,38.8,,33.8,7.0
1141.0,28.5,39.1,,33.8,7.4
1142.0,28.5,39.3,,33.9,7.6
1143.0,28.6,39.0,,33.8,7.4
1144.0,28.7,38.8,,33.7,7.2
1145.0,28.8,37.8,,33.3,6.3
1146.0,28.3,37.7,,33.0,6.6
1147.0,28.8,37.1,,32.9,5.8
1148.0,29.0,37.3,,33.2,5.9
1149.0,29.3,36.3,,32.8,4.9
1150.0,29.1,36.8,,33.0,5.4
1151.0,29.8,35.7,,32.7,4.2
1152.0,30.1,36.2,,33.2,4.3
1153.0,29.9,35.9,,32.9,4.2
1154.0,29.9,35.5,,32.7,4.0
1155.0,29.9,35.8,,32.8,4.2
1156.0,30.1,35.4,,32.8,3.8
1157.0,30.1,34.9,,32.5,3.4
1158.0,29.6,35.2,,32.4,4.0
1159.0,30.0,34.5,,32.3,3.2
1160.0,30.3,34.4,,32.3,2.9
1161.0,30.0,34.8,,32.4,3.4
1162.0,29.0,34.4,,31.7,3.9
1163.0,28.7,35.3,,32.0,4.7
1164.0,29.0,35.1,,32.0,4.3
1165.0,28.5,35.6,,32.0,5.0
1166.0,28.8,35.5,,32.1,4.7
1167.0,28.4,35.1,,31.8,4.8
1168.0,28.1,35.7,,31.9,5.4
1169.0,28.1,35.4,,31.8,5.2
1170.0,28.2,35.6,,31.9,5.2
1171.0,28.7,35.8,,32.3,5.0
1172.0,29.2,35.6,,32.4,4.6
1173.0,29.1,35.2,,32.2,4.4
1174.0,28.9,35.2,,32.0,4.4
1175.0,29.2,34.9,,32.0,4.0
1176.0,29.2,35.0,,32.1,4.1
1177.0,29.4,34.8,,32.1,3.8
1178.0,28.7,35.4,,32.0,4.7
1179.0,29.0,34.9,,32.0,4.1
1180.0,29.3,34.9,,32.1,4.0
1181.0,29.4,35.3,,32.4,4.2
1182.0,29.3,35.2,,32.3,4.2
1183.0,29.0,35.5,,32.2,4.5
1184.0,29.7,34.9,,32.3,3.7
1185.0,29.6,35.1,,32.4,3.9
1186.0,29.5,34.7,,32.1,3.7
1187.0,30.1,34.2,,32.2,2.9
1188.0,29.5,34.1,,31.8,3.3
1189.0,30.0,34.0,,32.0,2.8
1190.0,30.5,33.9,,32.2,2.4
1191.0,30.4,33.9,,32.1,2.4
1192.0,29.7,34.1,,31.9,3.1
1193.0,30.0,34.1,,32.1,2.9
1194.0,30.2,34.2,,32.2,2.8
1195.0,31.0,34.1,,32.6,2.2
1196.0,31.3,33.7,,32.5,1.7
1197.0,32.0,33.9,,33.0,1.4
1198.0,31.7,34.5,,33.1,2.0
1199.0,31.9,34.1,,33.0,1.5
1200.0,32.2,33.9,,33.0,1.2
1201.0,32.0,34.2,,33.1,1.5
1202.0,31.4,34.5,,32.9,2.2
1203.0,31.0,34.2,,32.6,2.3
1204.0,30.8,34.1,,32.4,2.3
1205.0,30.5,34.4,,32.5,2.8
1206.0,30.4,34.3,,32.3,2.8
1207.0,29.8,34.9,,32.4,3.6
1208.0,29.8,34.6,,32.2,3.5
1209.0,30.1,35.2,,32.7,3.6
1210.0,30.2,34.8,,32.5,3.3
1211.0,29.8,34.3,,32.0,3.2
1212.0,29.5,34.6,,32.1,3.6
1213.0,29.9,35.1,,32.5,3.7
1214.0,30.3,34.3,,32.3,2.8
1215.0,29.7,33.6,,31.7,2.8
1216.0,29.7,33.3,,31.5,2.6
1217.0,29.7,33.3,,31.5,2.5
1218.0,29.6,33.2,,31.4,2.5
1219.0,29.5,33.2,,31.4,2.6
1220.0,29.6,33.5,,31.5,2.7
1221.0,29.8,32.7,,31.2,2.1
1222.0,29.7,32.2,,30.9,1.7
1223.0,29.7,32.0,,30.8,1.6
1224.0,29.0,31.2,,30.1,1.5
1225.0,29.7,30.8,,30.2,0.8
1226.0,29.7,30.9,,30.3,0.8
1227.0,29.3,31.7,,30.5,1.7
1228.0,28.6,31.9,,30.2,2.4
1229.0,28.0,32.3,,30.2,3.0
1230.0,28.2,32.8,,30.5,3.3
1231.0,27.6,33.2,,30.4,3.9
1232.0,27.7,34.0,,30.9,4.5
1233.0,26.9,35.1,,31.0,5.8
1234.0,27.4,35.5,,31.5,5.7
1235.0,27.0,36.1,,31.6,6.4
1236.0,27.1,37.3,,32.2,7.2
1237.0,27.3,38.1,,32.7,7.6
1238.0,27.4,38.9,,33.1,8.2
1239.0,27.1,39.2,,33.2,8.6
1240.0,27.1,39.4,,33.2,8.7
1241.0,27.1,39.1,,33.1,8.5
1242.0,27.3,39.5,,33.4,8.7
1243.0,26.8,38.9,,32.9,8.6
1244.0,27.5,39.3,,33.4,8.3
1245.0,27.6,38.7,,33.2,7.8
1246.0,28.4,38.9,,33.7,7.5
1247.0,28.8,38.9,,33.8,7.2
1248.0,29.0,38.8,,33.9,6.9
1249.0,29.2,38.7,,33.9,6.7
1250.0,30.7,37.1,,33.9,4.6
1251.0,31.6,37.5,,34.5,4.2
1251.5,31.3,37.7,,34.5,4.6