File: 01_Data/Wool_Rug/Cone/Wool_Rug_HRRPUA_50.csv
Time after Ignition,Wool_Rug_R1,Wool_Rug_R2,Wool_Rug_R3,Mean,Std. Dev.
0.0,7.8,9.1,11.3,9.4,1.8
0.5,26.2,14.9,19.3,20.1,5.7
1.0,41.0,19.3,24.6,28.3,11.3
1.5,50.7,33.1,49.4,44.4,9.8
2.0,80.6,51.4,66.5,66.2,14.6
2.5,104.5,91.0,88.5,94.7,8.6
3.0,131.8,122.7,125.5,126.7,4.7
3.5,157.7,151.8,157.7,155.8,3.4
4.0,183.9,183.3,190.3,185.8,3.9
4.5,207.9,211.5,217.1,212.2,4.6
5.0,232.0,240.8,243.3,238.7,5.9
5.5,242.2,266.0,262.7,257.0,12.9
6.0,261.1,286.4,285.6,277.7,14.4
6.5,280.2,301.5,307.8,296.5,14.4
7.0,288.7,308.7,306.4,301.3,10.9
7.5,296.1,326.0,317.5,313.2,15.4
8.0,311.8,318.8,331.4,320.7,10.0
8.5,319.6,334.5,336.4,330.2,9.2
9.0,324.2,340.9,339.9,335.0,9.4
9.5,328.9,352.3,346.7,342.6,12.2
10.0,332.5,357.1,347.2,345.6,12.4
10.5,338.2,348.6,353.1,346.6,7.6
11.0,341.7,356.5,350.1,349.4,7.5
11.5,343.8,348.6,347.2,346.5,2.5
12.0,333.8,347.1,343.9,341.6,7.0
12.5,335.3,351.7,342.1,343.1,8.3
13.0,330.1,339.5,335.7,335.1,4.7
13.5,323.9,346.2,334.4,334.8,11.1
14.0,331.5,343.1,335.8,336.8,5.9
14.5,320.6,332.5,331.3,328.1,6.6
15.0,319.0,333.6,329.0,327.2,7.5
15.5,309.0,326.7,326.3,320.7,10.1
16.0,309.8,329.8,323.9,321.1,10.3
16.5,300.5,325.2,315.2,313.6,12.4
17.0,307.5,315.9,314.5,312.6,4.5
17.5,295.6,319.0,317.8,310.8,13.2
18.0,293.6,307.2,304.4,301.7,7.2
18.5,293.2,307.2,311.7,304.1,9.6
19.0,287.6,294.1,305.8,295.8,9.2
19.5,281.6,295.5,296.4,291.2,8.3
20.0,278.7,295.1,294.4,289.4,9.3
20.5,285.2,292.2,295.4,290.9,5.2
21.0,278.1,293.2,288.8,286.7,7.8
21.5,272.5,293.9,290.2,285.5,11.5
22.0,273.5,281.0,283.9,279.4,5.4
22.5,271.8,285.2,284.6,280.5,7.6
23.0,262.0,284.7,278.9,275.2,11.8
23.5,264.5,277.7,277.5,273.3,7.5
24.0,262.8,274.5,277.0,271.4,7.5
24.5,261.0,268.5,276.0,268.5,7.5
25.0,260.9,269.1,266.4,265.4,4.2
25.5,258.3,263.3,268.1,263.2,4.9
26.0,251.3,265.4,262.2,259.7,7.4
26.5,256.3,264.5,259.1,260.0,4.2
27.0,250.0,262.6,265.4,259.3,8.2
27.5,250.5,260.1,260.5,257.0,5.6
28.0,251.1,260.8,257.0,256.3,4.9
28.5,245.5,259.4,249.1,251.3,7.2
29.0,242.9,256.3,256.0,251.7,7.6
29.5,246.6,252.7,251.1,250.1,3.2
30.0,244.4,253.0,245.7,247.7,4.6
30.5,239.7,248.8,248.2,245.5,5.1
31.0,237.6,249.8,243.6,243.7,6.1
31.5,239.8,246.6,236.2,240.9,5.3
32.0,234.5,244.2,239.9,239.5,4.8
32.5,235.9,244.3,237.7,239.3,4.4
33.0,231.2,239.5,234.8,235.2,4.2
33.5,227.6,235.4,235.0,232.7,4.4
34.0,224.5,235.3,231.6,230.5,5.5
34.5,225.9,235.1,230.8,230.6,4.6
35.0,227.4,232.3,227.6,229.1,2.7
35.5,220.1,227.0,224.1,223.7,3.5
36.0,220.7,226.9,222.1,223.2,3.2
36.5,218.2,228.3,218.6,221.7,5.7
37.0,219.1,225.3,214.8,219.7,5.2
37.5,215.9,222.8,215.2,218.0,4.2
38.0,211.3,220.7,208.4,213.5,6.4
38.5,211.8,222.8,210.3,215.0,6.8
39.0,212.7,220.1,205.9,212.9,7.1
39.5,208.3,216.3,203.3,209.3,6.6
40.0,210.7,217.3,205.3,211.1,6.0
40.5,211.7,216.0,202.3,210.0,7.0
41.0,208.2,215.6,199.6,207.8,8.0
41.5,206.4,214.1,201.7,207.4,6.2
42.0,203.3,213.3,200.0,205.5,6.9
42.5,198.0,211.5,200.9,203.5,7.1
43.0,198.9,206.7,198.9,201.5,4.5
43.5,197.2,208.6,194.7,200.2,7.4
44.0,199.4,212.1,198.8,203.5,7.5
44.5,197.4,210.1,193.6,200.4,8.6
45.0,198.2,207.6,194.5,200.1,6.7
45.5,197.8,205.8,194.2,199.3,5.9
46.0,200.4,202.2,191.1,197.9,6.0
46.5,196.1,203.6,192.2,197.3,5.8
47.0,194.2,200.8,191.0,195.3,5.0
47.5,193.0,201.0,188.4,194.1,6.4
48.0,195.2,195.6,184.8,191.9,6.2
48.5,190.2,195.9,186.6,190.9,4.7
49.0,189.7,193.6,190.6,191.3,2.0
49.5,189.6,193.6,187.5,190.2,3.1
50.0,188.3,189.7,187.2,188.4,1.3
50.5,183.8,188.8,186.1,186.2,2.5
51.0,180.4,189.6,185.5,185.2,4.6
51.5,179.3,184.5,186.8,183.6,3.8
52.0,179.2,189.2,184.2,184.2,5.0
52.5,179.7,186.8,183.4,183.3,3.6
53.0,176.6,188.1,186.0,183.6,6.1
53.5,177.1,187.4,183.9,182.8,5.2
54.0,175.1,183.2,182.0,180.1,4.4
54.5,175.0,183.4,180.1,179.5,4.2
55.0,173.6,186.3,179.2,179.7,6.3
55.5,176.4,182.6,179.9,179.6,3.1
56.0,173.5,182.6,176.5,177.5,4.6
56.5,176.8,178.9,177.0,177.6,1.1
57.0,172.1,179.3,173.3,174.9,3.9
57.5,175.2,180.1,175.0,176.8,2.9
58.0,172.8,180.9,174.1,175.9,4.4
58.5,169.4,180.1,173.1,174.2,5.4
59.0,172.6,176.0,171.9,173.5,2.2
59.5,171.6,176.8,169.8,172.7,3.7
60.0,169.3,175.9,169.9,171.7,3.6
60.5,168.0,173.3,170.1,170.5,2.7
61.0,166.2,177.8,168.4,170.8,6.1
61.5,168.3,172.0,166.9,169.1,2.6
62.0,165.4,174.8,168.1,169.4,4.8
62.5,164.4,174.0,164.9,167.8,5.4
63.0,165.5,174.3,165.5,168.4,5.1
63.5,165.1,172.7,162.6,166.8,5.3
64.0,161.6,170.5,165.4,165.8,4.4
64.5,161.5,171.6,164.7,165.9,5.2
65.0,160.9,168.7,161.7,163.8,4.3
65.5,157.2,169.4,163.4,163.3,6.1
66.0,157.2,168.8,158.6,161.6,6.3
66.5,154.0,168.3,159.9,160.8,7.2
67.0,156.1,167.3,160.3,161.2,5.7
67.5,155.4,168.6,159.0,161.0,6.8
68.0,158.2,165.7,159.3,161.1,4.0
68.5,154.8,167.4,156.4,159.5,6.9
69.0,152.6,168.2,154.9,158.6,8.5
69.5,150.1,165.1,154.6,156.6,7.7
70.0,151.5,167.8,154.0,157.8,8.8
70.5,151.2,165.0,151.6,155.9,7.8
71.0,149.9,165.8,151.2,155.6,8.8
71.5,148.3,164.9,151.2,154.8,8.8
72.0,148.8,165.0,151.3,155.0,8.7
72.5,148.4,166.6,149.8,154.9,10.1
73.0,149.8,167.4,149.7,155.6,10.2
73.5,147.4,164.0,149.7,153.7,9.0
74.0,148.1,165.1,148.3,153.8,9.7
74.5,146.9,161.7,149.8,152.8,7.8
75.0,145.5,163.8,149.0,152.8,9.7
75.5,146.4,162.0,147.4,151.9,8.7
76.0,144.4,161.3,146.9,150.9,9.1
76.5,143.8,161.7,146.7,150.7,9.6
77.0,145.3,160.9,148.3,151.5,8.3
77.5,143.2,161.7,148.1,151.0,9.6
78.0,144.0,161.6,146.2,150.6,9.6
78.5,143.5,159.0,143.7,148.7,8.9
79.0,141.3,163.6,147.1,150.7,11.6
79.5,143.6,159.2,145.7,149.5,8.5
80.0,141.6,160.4,146.2,149.4,9.8
80.5,137.9,160.3,145.8,148.0,11.4
81.0,142.4,159.5,146.1,149.3,9.0
81.5,138.9,164.3,145.8,149.7,13.1
82.0,138.4,164.2,148.3,150.3,13.0
82.5,141.3,160.2,146.5,149.3,9.8
83.0,138.0,161.7,145.3,148.3,12.1
83.5,139.1,162.6,144.9,148.9,12.2
84.0,140.0,160.6,144.5,148.4,10.8
84.5,138.2,161.8,147.4,149.1,11.9
85.0,136.5,163.2,146.2,148.6,13.5
85.5,139.3,164.0,144.8,149.3,13.0
86.0,137.6,161.0,149.1,149.3,11.7
86.5,136.2,163.6,149.1,149.6,13.7
87.0,135.7,159.8,148.1,147.9,12.1
87.5,136.9,161.0,150.8,149.6,12.1
88.0,132.5,161.7,149.6,147.9,14.6
88.5,133.7,159.3,149.4,147.5,12.9
89.0,134.7,159.9,150.6,148.4,12.7
89.5,134.5,158.0,152.3,148.3,12.3
90.0,131.4,159.4,151.1,147.3,14.4
90.5,134.2,157.5,150.7,147.5,12.0
91.0,131.7,156.3,150.5,146.2,12.9
91.5,134.0,158.7,151.8,148.2,12.7
92.0,132.0,157.8,151.0,146.9,13.4
92.5,132.2,157.8,151.2,147.1,13.3
93.0,131.8,160.1,150.9,147.6,14.4
93.5,132.9,159.1,154.4,148.8,14.0
94.0,132.4,156.6,152.8,147.3,13.0
94.5,133.8,158.0,153.8,148.6,12.9
95.0,130.1,158.1,153.6,147.3,15.0
95.5,132.9,156.3,153.1,147.4,12.7
96.0,130.6,155.8,153.2,146.5,13.8
96.5,134.0,160.0,153.2,149.1,13.5
97.0,132.3,158.6,155.9,148.9,14.5
97.5,133.6,156.4,154.9,148.3,12.8
98.0,131.7,156.4,152.0,146.7,13.2
98.5,131.7,155.9,152.6,146.8,13.1
99.0,131.8,155.5,155.4,147.6,13.7
99.5,128.9,156.2,154.0,146.4,15.2
100.0,131.7,155.3,152.3,146.5,12.9
100.5,131.4,153.6,153.5,146.2,12.8
101.0,130.7,156.4,151.7,146.3,13.7
101.5,132.7,155.4,153.5,147.2,12.6
102.0,129.8,152.9,153.9,145.5,13.6
102.5,133.5,153.4,152.0,146.3,11.1
103.0,132.5,153.4,153.3,146.4,12.1
103.5,132.9,154.4,148.7,145.3,11.1
104.0,132.6,155.0,148.8,145.5,11.6
104.5,131.5,153.2,150.4,145.1,11.8
105.0,132.1,152.9,149.5,144.8,11.2
105.5,132.0,151.5,151.2,144.9,11.2
106.0,130.1,156.4,150.0,145.5,13.7
106.5,130.8,153.9,149.1,144.6,12.2
107.0,130.5,152.3,148.3,143.7,11.6
107.5,131.8,152.7,150.1,144.9,11.4
108.0,131.0,153.2,147.6,143.9,11.5
108.5,133.2,152.1,147.6,144.3,9.9
109.0,131.8,153.0,146.8,143.9,10.9
109.5,130.8,151.6,146.1,142.9,10.8
110.0,131.2,152.6,146.5,143.4,11.0
110.5,131.8,151.7,143.8,142.4,10.1
111.0,129.8,152.1,143.4,141.8,11.2
111.5,129.8,150.9,142.8,141.2,10.7
112.0,130.9,150.9,143.8,141.9,10.1
112.5,130.3,152.7,142.9,142.0,11.2
113.0,129.7,149.8,142.1,140.5,10.1
113.5,129.1,151.9,142.7,141.2,11.5
114.0,131.2,153.0,142.8,142.3,10.9
114.5,128.7,150.3,139.4,139.5,10.8
115.0,128.4,149.5,143.0,140.3,10.8
115.5,129.0,150.5,142.1,140.5,10.8
116.0,127.6,150.2,140.9,139.6,11.4
116.5,128.5,149.8,139.8,139.4,10.6
117.0,127.5,150.7,141.9,140.0,11.7
117.5,126.2,149.5,138.7,138.1,11.7
118.0,126.0,148.6,139.6,138.1,11.4
118.5,125.7,147.2,139.8,137.6,10.9
119.0,126.3,146.2,140.7,137.7,10.3
119.5,123.6,146.7,137.7,136.0,11.7
120.0,123.8,144.8,135.5,134.7,10.5
120.5,124.4,144.3,138.0,135.6,10.2
121.0,123.0,143.8,138.9,135.3,10.9
121.5,123.6,143.0,139.6,135.4,10.4
122.0,123.7,143.0,139.2,135.3,10.2
122.5,122.7,143.3,139.2,135.1,10.9
123.0,123.3,144.6,138.0,135.3,10.9
123.5,123.5,141.5,138.6,134.5,9.7
124.0,122.3,143.0,142.2,135.8,11.7
124.5,124.7,142.7,137.8,135.1,9.3
125.0,121.6,143.4,140.0,135.0,11.7
125.5,120.8,144.3,137.3,134.1,12.1
126.0,122.8,144.7,137.8,135.1,11.2
126.5,122.7,142.5,137.1,134.1,10.2
127.0,121.1,144.0,137.0,134.0,11.7
127.5,123.2,142.2,138.5,134.7,10.1
128.0,123.8,142.1,137.9,134.6,9.6
128.5,121.5,140.8,136.9,133.1,10.2
129.0,120.1,141.5,136.1,132.6,11.1
129.5,120.9,139.6,135.7,132.0,9.8
130.0,121.8,140.6,134.4,132.3,9.6
130.5,120.4,139.3,135.4,131.7,10.0
131.0,120.1,138.5,134.3,131.0,9.6
131.5,120.2,139.3,134.8,131.4,10.0
132.0,121.4,138.2,136.7,132.1,9.3
132.5,119.9,138.9,135.0,131.3,10.1
133.0,119.3,139.5,136.1,131.7,10.8
133.5,118.1,141.3,134.9,131.4,12.0
134.0,118.4,142.2,137.5,132.7,12.6
134.5,119.1,139.9,136.8,131.9,11.2
135.0,119.5,138.8,136.1,131.5,10.5
135.5,118.8,143.3,135.3,132.5,12.5
136.0,117.5,138.6,134.9,130.3,11.2
136.5,117.4,139.5,133.6,130.2,11.4
137.0,120.0,138.3,133.0,130.4,9.4
137.5,117.7,137.9,133.8,129.8,10.7
138.0,115.5,136.5,134.7,128.9,11.6
138.5,118.7,135.9,132.9,129.2,9.2
139.0,116.5,138.3,132.4,129.0,11.3
139.5,116.2,138.1,133.0,129.1,11.5
140.0,115.8,136.7,132.2,128.2,11.0
140.5,114.0,134.5,132.6,127.0,11.3
141.0,113.0,133.5,130.0,125.5,11.0
141.5,114.8,134.1,132.7,127.2,10.8
142.0,113.0,135.1,132.3,126.8,12.1
142.5,112.8,134.7,129.7,125.7,11.5
143.0,114.1,135.7,131.1,127.0,11.4
143.5,114.7,134.0,130.6,126.5,10.3
144.0,116.8,135.2,129.5,127.2,9.4
144.5,114.2,133.5,128.3,125.3,9.9
145.0,114.0,132.1,130.8,125.6,10.1
145.5,114.2,134.3,128.8,125.8,10.4
146.0,115.9,132.3,127.3,125.2,8.4
146.5,112.5,130.7,127.5,123.6,9.7
147.0,116.2,130.6,127.2,124.7,7.5
147.5,114.9,132.9,125.7,124.5,9.1
148.0,116.4,132.8,129.5,126.2,8.7
148.5,114.8,130.5,126.9,124.1,8.2
149.0,113.2,130.6,127.5,123.8,9.3
149.5,115.3,129.6,127.6,124.2,7.7
150.0,115.3,131.3,126.6,124.4,8.2
150.5,113.6,131.8,126.5,123.9,9.3
151.0,114.2,129.7,125.4,123.1,8.0
151.5,114.2,126.5,126.7,122.5,7.2
152.0,114.4,127.5,128.7,123.6,7.9
152.5,114.2,130.5,127.4,124.0,8.7
153.0,116.6,129.5,126.1,124.1,6.7
153.5,113.1,129.5,129.1,123.9,9.4
154.0,113.2,128.2,125.1,122.2,7.9
154.5,113.2,127.9,125.5,122.2,7.9
155.0,114.0,127.7,128.1,123.3,8.1
155.5,113.1,128.0,125.8,122.3,8.1
156.0,111.6,127.5,126.2,121.8,8.8
156.5,112.4,126.5,125.6,121.5,7.9
157.0,112.5,129.6,126.1,122.7,9.0
157.5,113.7,128.4,126.4,122.8,8.0
158.0,111.6,129.0,126.7,122.4,9.5
158.5,111.2,128.6,126.6,122.1,9.5
159.0,112.1,129.9,126.3,122.7,9.4
159.5,108.3,129.7,124.5,120.8,11.2
160.0,111.6,128.2,125.9,121.9,9.0
160.5,111.7,128.2,123.7,121.2,8.5
161.0,111.4,130.0,124.3,121.9,9.5
161.5,112.2,129.9,125.2,122.5,9.2
162.0,112.7,127.7,125.0,121.8,8.0
162.5,110.2,128.0,123.2,120.4,9.2
163.0,110.6,130.8,124.8,122.1,10.4
163.5,111.6,130.3,126.0,122.6,9.8
164.0,110.3,128.4,124.0,120.9,9.5
164.5,111.9,128.3,122.5,120.9,8.3
165.0,113.2,127.3,126.1,122.2,7.8
165.5,110.4,130.6,125.6,122.2,10.5
166.0,111.0,128.5,123.0,120.8,8.9
166.5,112.2,130.3,123.4,121.9,9.2
167.0,112.5,129.1,122.0,121.2,8.4
167.5,110.1,128.3,121.8,120.1,9.2
168.0,109.6,129.9,123.7,121.1,10.4
168.5,112.1,129.4,123.5,121.7,8.8
169.0,109.0,130.0,123.7,120.9,10.8
169.5,110.7,126.1,122.2,119.7,8.0
170.0,110.0,128.6,123.1,120.6,9.5
170.5,111.2,129.8,122.5,121.2,9.4
171.0,109.6,127.4,120.9,119.3,9.0
171.5,110.2,129.3,122.0,120.5,9.6
172.0,110.9,129.0,121.9,120.6,9.1
172.5,110.1,129.2,122.6,120.6,9.7
173.0,110.4,129.4,121.9,120.6,9.6
173.5,110.4,126.8,121.3,119.5,8.3
174.0,109.6,128.5,122.0,120.0,9.6
174.5,109.6,126.6,120.6,119.0,8.6
175.0,110.9,127.8,121.5,120.1,8.6
175.5,109.6,129.0,123.5,120.7,10.0
176.0,110.2,129.0,122.3,120.5,9.5
176.5,110.9,127.7,120.0,119.5,8.4
177.0,109.1,130.2,120.9,120.0,10.6
177.5,109.2,131.2,119.1,119.8,11.0
178.0,110.6,130.4,120.5,120.5,9.9
178.5,111.9,132.6,120.1,121.5,10.4
179.0,110.9,127.3,120.8,119.7,8.2
179.5,111.7,131.5,121.1,121.4,9.9
180.0,111.6,130.4,120.0,120.6,9.4
180.5,110.5,128.7,120.6,120.0,9.1
181.0,108.5,129.7,121.3,119.8,10.7
181.5,111.5,129.7,120.5,120.6,9.1
182.0,110.9,129.8,121.8,120.9,9.5
182.5,109.2,131.2,123.1,121.2,11.1
183.0,111.5,130.8,121.0,121.1,9.6
183.5,110.6,130.5,121.3,120.8,10.0
184.0,111.9,130.4,122.9,121.7,9.3
184.5,112.8,130.9,122.0,121.9,9.0
185.0,112.4,129.1,120.6,120.7,8.4
185.5,111.5,132.9,122.1,122.2,10.7
186.0,112.7,129.9,120.9,121.2,8.6
186.5,111.9,132.0,122.1,122.0,10.1
187.0,112.7,131.7,120.2,121.5,9.6
187.5,112.8,131.5,119.6,121.3,9.5
188.0,110.4,131.1,121.6,121.1,10.3
188.5,111.4,130.4,119.8,120.6,9.5
189.0,111.6,131.3,120.9,121.3,9.8
189.5,113.2,131.9,121.4,122.2,9.4
190.0,111.4,131.6,121.6,121.5,10.1
190.5,111.6,129.4,121.0,120.7,9.0
191.0,112.7,132.2,119.9,121.6,9.9
191.5,111.3,131.5,120.4,121.1,10.1
192.0,110.5,132.4,120.4,121.1,11.0
192.5,110.9,132.0,121.5,121.5,10.6
193.0,111.9,134.6,121.4,122.6,11.4
193.5,111.1,133.5,121.4,122.0,11.2
194.0,110.9,132.4,120.3,121.2,10.8
194.5,111.8,133.8,119.4,121.6,11.2
195.0,111.5,133.3,119.1,121.3,11.1
195.5,111.7,133.8,121.0,122.2,11.1
196.0,113.5,132.2,118.2,121.3,9.7
196.5,110.6,132.0,119.4,120.7,10.8
197.0,111.6,134.2,118.7,121.5,11.5
197.5,113.6,133.2,120.7,122.5,9.9
198.0,112.6,132.7,119.1,121.5,10.2
198.5,111.5,134.0,118.6,121.4,11.5
199.0,112.9,132.1,117.9,121.0,10.0
199.5,111.2,132.4,118.2,120.6,10.8
200.0,112.3,134.2,117.8,121.4,11.4
200.5,110.9,133.1,117.6,120.5,11.4
201.0,114.3,132.6,119.9,122.3,9.4
201.5,112.1,131.2,118.9,120.7,9.7
202.0,113.9,132.0,119.2,121.7,9.3
202.5,112.0,132.0,118.5,120.8,10.2
203.0,113.4,133.1,116.6,121.0,10.5
203.5,112.4,133.3,116.5,120.8,11.1
204.0,112.9,133.9,116.0,120.9,11.4
204.5,114.0,134.1,115.8,121.3,11.1
205.0,111.5,134.7,116.7,121.0,12.2
205.5,110.6,134.4,117.5,120.8,12.2
206.0,111.1,134.4,116.9,120.8,12.1
206.5,112.7,134.2,115.1,120.6,11.8
207.0,111.1,135.2,114.1,120.1,13.1
207.5,110.7,134.0,115.1,119.9,12.4
208.0,111.9,133.1,115.3,120.1,11.4
208.5,112.3,134.8,116.8,121.3,11.9
209.0,112.9,133.3,114.3,120.1,11.4
209.5,112.6,134.2,115.3,120.7,11.8
210.0,113.4,133.4,114.3,120.4,11.3
210.5,114.3,133.8,114.9,121.0,11.1
211.0,112.0,134.0,115.7,120.6,11.8
211.5,113.1,133.0,115.3,120.5,10.9
212.0,111.3,133.0,113.6,119.3,11.9
212.5,113.3,135.8,114.5,121.2,12.6
213.0,111.7,134.4,112.7,119.6,12.8
213.5,111.5,132.9,115.8,120.1,11.3
214.0,112.2,132.2,112.1,118.8,11.6
214.5,110.9,134.4,110.3,118.5,13.7
215.0,110.5,134.8,113.9,119.7,13.2
215.5,110.9,132.9,112.4,118.8,12.3
216.0,110.2,132.9,112.4,118.5,12.5
216.5,112.4,133.9,113.4,119.9,12.1
217.0,110.7,133.2,113.5,119.1,12.3
217.5,113.0,135.0,112.6,120.2,12.8
218.0,112.0,133.4,112.8,119.4,12.2
218.5,112.9,132.8,112.8,119.5,11.5
219.0,111.4,131.4,112.7,118.5,11.2
219.5,112.5,134.7,112.4,119.9,12.8
220.0,111.5,132.9,111.9,118.8,12.2
220.5,111.8,132.4,113.7,119.3,11.4
221.0,113.8,133.9,112.9,120.2,11.9
221.5,114.4,134.1,110.8,119.8,12.6
222.0,114.4,135.5,111.5,120.5,13.1
222.5,112.9,132.6,113.7,119.7,11.1
223.0,111.2,133.6,110.9,118.6,13.0
223.5,113.5,134.0,111.0,119.5,12.6
224.0,114.1,132.7,112.4,119.7,11.3
224.5,115.0,133.9,109.9,119.6,12.6
225.0,112.9,132.4,111.1,118.8,11.8
225.5,112.7,135.2,113.3,120.4,12.8
226.0,113.5,134.0,112.1,119.8,12.3
226.5,114.0,136.5,111.0,120.5,13.9
227.0,112.3,134.3,111.9,119.5,12.8
227.5,115.8,132.6,112.2,120.2,10.9
228.0,113.7,132.3,111.4,119.1,11.4
228.5,112.1,132.1,113.5,119.2,11.2
229.0,113.2,133.1,112.6,119.6,11.7
229.5,112.3,128.5,112.2,117.7,9.4
230.0,111.9,131.5,113.0,118.8,11.1
230.5,113.7,131.8,113.6,119.7,10.5
231.0,113.1,130.0,113.5,118.9,9.6
231.5,111.7,130.7,113.9,118.8,10.4
232.0,114.0,131.7,112.9,119.5,10.5
232.5,113.9,128.4,112.9,118.4,8.7
233.0,115.2,130.1,115.1,120.1,8.6
233.5,114.1,129.6,110.8,118.2,10.0
234.0,114.1,129.1,113.3,118.8,8.9
234.5,115.6,128.7,114.3,119.5,8.0
235.0,114.7,128.6,113.1,118.8,8.5
235.5,114.1,128.3,115.0,119.2,8.0
236.0,114.1,128.4,116.5,119.6,7.7
236.5,114.9,128.3,115.1,119.5,7.7
237.0,114.5,128.0,116.7,119.7,7.3
237.5,115.5,128.8,114.6,119.6,8.0
238.0,113.3,126.5,116.1,118.7,7.0
238.5,114.1,126.0,117.0,119.0,6.2
239.0,115.0,125.4,117.1,119.2,5.5
239.5,115.5,126.1,114.9,118.8,6.3
240.0,114.0,126.5,116.3,119.0,6.6
240.5,113.8,127.8,118.7,120.1,7.1
241.0,113.6,123.7,114.8,117.4,5.5
241.5,116.0,125.8,115.5,119.1,5.8
242.0,114.7,125.2,116.4,118.8,5.7
242.5,113.0,125.2,115.9,118.0,6.4
243.0,113.4,124.2,113.9,117.2,6.1
243.5,114.0,123.7,115.9,117.9,5.2
244.0,113.2,123.3,114.5,117.0,5.5
244.5,114.0,124.4,114.0,117.5,6.0
245.0,114.1,122.7,114.7,117.2,4.8
245.5,113.5,121.9,114.7,116.7,4.6
246.0,113.0,122.3,115.0,116.8,4.9
246.5,114.0,122.1,114.2,116.8,4.6
247.0,113.5,121.0,115.8,116.8,3.9
247.5,112.7,121.8,115.2,116.6,4.7
248.0,111.2,122.0,114.6,116.0,5.5
248.5,111.7,121.1,112.9,115.3,5.1
249.0,112.1,121.3,113.6,115.7,4.9
249.5,110.3,120.9,115.4,115.5,5.3
250.0,112.7,119.6,117.2,116.5,3.5
250.5,111.1,120.5,113.7,115.1,4.9
251.0,112.0,119.9,114.6,115.5,4.0
251.5,109.6,120.1,114.2,114.7,5.3
252.0,110.0,119.7,111.9,113.9,5.1
252.5,111.3,118.4,115.3,115.0,3.6
253.0,109.0,119.1,111.8,113.3,5.3
253.5,108.5,118.2,113.2,113.3,4.9
254.0,109.8,117.9,114.1,113.9,4.1
254.5,108.9,117.7,112.2,112.9,4.4
255.0,109.9,116.4,111.4,112.6,3.4
255.5,107.9,117.9,113.1,113.0,5.0
256.0,107.2,116.7,110.8,111.6,4.8
256.5,109.3,117.6,109.5,112.1,4.7
257.0,109.9,115.5,110.8,112.0,3.0
257.5,109.0,116.8,107.1,111.0,5.2
258.0,109.0,114.6,106.9,110.2,4.0
258.5,108.2,115.1,109.7,111.0,3.7
259.0,108.0,115.0,107.8,110.3,4.1
259.5,109.6,115.6,108.8,111.3,3.7
260.0,106.8,114.5,106.3,109.2,4.6
260.5,107.7,114.5,107.8,110.0,3.9
261.0,110.7,112.9,106.5,110.0,3.2
261.5,108.2,114.3,106.3,109.6,4.2
262.0,107.4,114.7,106.2,109.4,4.6
262.5,108.5,116.5,105.7,110.2,5.6
263.0,108.7,116.7,104.8,110.0,6.1
263.5,107.9,115.0,103.3,108.8,5.9
264.0,107.3,115.9,105.6,109.6,5.5
264.5,105.4,114.5,103.5,107.8,5.9
265.0,108.4,114.8,105.2,109.5,4.9
265.5,107.5,115.1,103.7,108.8,5.8
266.0,108.6,114.9,102.7,108.7,6.1
266.5,106.6,114.6,103.1,108.1,5.9
267.0,107.4,115.2,102.1,108.2,6.6
267.5,106.3,115.0,102.7,108.0,6.3
268.0,107.3,114.8,104.2,108.7,5.5
268.5,108.2,116.3,103.6,109.4,6.5
269.0,105.6,115.0,102.1,107.5,6.7
269.5,106.5,113.5,104.1,108.1,4.9
270.0,107.6,116.8,102.9,109.1,7.1
270.5,105.2,114.0,102.0,107.1,6.2
271.0,106.3,115.2,99.7,107.1,7.8
271.5,104.9,116.0,102.5,107.8,7.2
272.0,106.4,116.2,100.6,107.8,7.9
272.5,107.0,115.9,98.6,107.2,8.6
273.0,104.3,116.6,98.6,106.5,9.2
273.5,105.1,115.7,98.8,106.5,8.5
274.0,105.2,117.0,100.1,107.5,8.7
274.5,104.8,117.1,98.3,106.8,9.5
275.0,104.9,116.8,98.9,106.8,9.1
275.5,105.0,117.4,97.2,106.5,10.2
276.0,105.9,117.0,97.1,106.7,10.0
276.5,105.0,116.3,97.8,106.4,9.3
277.0,105.1,116.3,95.2,105.5,10.5
277.5,105.3,115.6,96.3,105.8,9.7
278.0,104.2,118.8,97.1,106.7,11.1
278.5,105.1,115.8,95.4,105.5,10.2
279.0,104.9,116.9,96.4,106.1,10.3
279.5,105.5,114.7,97.5,105.9,8.6
280.0,107.4,116.7,97.4,107.2,9.7
280.5,105.7,115.8,97.5,106.4,9.1
281.0,105.7,114.8,97.5,106.0,8.7
281.5,104.5,113.0,95.7,104.4,8.7
282.0,104.4,111.0,99.5,105.0,5.8
282.5,104.1,112.8,98.5,105.1,7.2
283.0,103.6,111.9,98.9,104.8,6.6
283.5,105.7,113.6,99.0,106.1,7.3
284.0,105.3,112.4,97.1,104.9,7.7
284.5,105.9,110.9,98.7,105.2,6.1
285.0,106.5,111.1,99.3,105.6,6.0
285.5,104.6,108.6,98.5,103.9,5.1
286.0,106.0,109.0,98.7,104.5,5.3
286.5,105.0,108.0,99.6,104.2,4.2
287.0,106.4,106.5,99.4,104.1,4.1
287.5,104.6,106.0,100.5,103.7,2.9
288.0,104.3,105.0,98.3,102.5,3.6
288.5,105.1,104.5,99.7,103.1,3.0
289.0,105.7,103.6,98.7,102.7,3.6
289.5,104.6,102.4,99.4,102.1,2.6
290.0,106.9,101.0,98.6,102.2,4.3
290.5,104.6,102.0,99.0,101.9,2.8
291.0,105.7,100.6,97.3,101.2,4.2
291.5,105.1,99.6,98.4,101.0,3.6
292.0,106.3,99.1,98.1,101.1,4.5
292.5,105.0,99.0,98.0,100.6,3.8
293.0,105.1,97.0,99.2,100.4,4.2
293.5,103.7,95.0,98.3,99.0,4.4
294.0,103.9,97.0,99.1,100.0,3.5
294.5,106.5,93.6,96.5,98.9,6.7
295.0,102.2,93.0,99.1,98.1,4.7
295.5,104.4,92.2,98.3,98.3,6.1
296.0,103.5,90.1,101.7,98.5,7.3
296.5,103.2,90.6,99.6,97.8,6.5
297.0,104.8,87.2,99.6,97.2,9.0
297.5,102.4,89.5,99.1,97.0,6.7
298.0,103.7,88.3,100.3,97.4,8.1
298.5,102.6,87.4,98.4,96.1,7.8
299.0,102.3,84.8,99.4,95.5,9.4
299.5,101.6,83.0,98.9,94.5,10.1
300.0,100.8,82.7,98.8,94.1,9.9
300.5,103.0,80.8,99.3,94.4,11.9
301.0,101.1,79.4,98.5,93.0,11.8
301.5,101.3,79.4,97.2,92.6,11.7
302.0,102.0,78.5,98.2,92.9,12.6
302.5,100.7,77.0,98.6,92.1,13.1
303.0,98.9,74.0,97.9,90.3,14.1
303.5,100.8,74.5,96.5,90.6,14.1
304.0,99.9,73.3,97.8,90.3,14.8
304.5,97.8,71.6,96.1,88.5,14.6
305.0,97.8,71.0,97.2,88.7,15.3
305.5,98.7,70.6,94.7,88.0,15.2
306.0,97.8,69.1,95.3,87.4,15.9
306.5,96.5,68.3,95.3,86.7,15.9
307.0,96.6,67.4,94.3,86.1,16.2
307.5,96.2,66.6,94.5,85.8,16.6
308.0,95.2,66.2,93.7,85.0,16.3
308.5,96.1,64.4,92.4,84.3,17.4
309.0,96.4,62.7,92.7,83.9,18.5
309.5,95.2,62.2,91.3,82.9,18.0
310.0,94.3,61.0,90.5,81.9,18.2
310.5,93.3,59.6,89.0,80.6,18.3
311.0,94.2,57.6,88.8,80.2,19.8
311.5,93.8,57.4,87.6,79.6,19.5
312.0,92.4,56.3,86.7,78.5,19.4
312.5,92.3,56.0,86.8,78.4,19.6
313.0,91.0,54.6,86.6,77.4,19.9
313.5,90.3,53.5,84.1,76.0,19.7
314.0,91.6,52.6,82.6,75.6,20.4
314.5,91.5,51.6,83.2,75.4,21.0
315.0,90.4,50.8,82.1,74.5,20.9
315.5,88.4,50.5,81.2,73.3,20.1
316.0,88.5,49.5,79.7,72.6,20.5
316.5,89.3,48.3,79.0,72.2,21.3
317.0,86.3,48.1,78.1,70.9,20.1
317.5,88.4,47.6,75.6,70.5,20.9
318.0,88.6,47.0,76.9,70.8,21.5
318.5,86.3,45.9,74.9,69.0,20.8
319.0,86.2,44.7,76.1,69.0,21.6
319.5,85.2,45.3,74.6,68.4,20.7
320.0,85.0,44.2,74.3,67.9,21.1
320.5,84.5,43.6,72.7,66.9,21.0
321.0,83.1,43.5,71.9,66.2,20.4
321.5,82.5,42.8,71.0,65.4,20.4
322.0,81.3,42.7,69.5,64.5,19.8
322.5,82.1,41.7,68.0,63.9,20.5
323.0,82.8,41.4,66.9,63.7,20.9
323.5,82.2,40.2,65.7,62.7,21.2
324.0,82.4,40.0,66.9,63.1,21.4
324.5,80.7,39.8,65.2,61.9,20.7
325.0,80.4,39.1,64.5,61.3,20.9
325.5,79.1,38.4,63.2,60.2,20.5
326.0,81.3,38.0,63.2,60.8,21.8
326.5,79.2,38.0,62.1,59.8,20.7
327.0,81.1,37.4,62.6,60.4,21.9
327.5,79.4,37.4,62.1,59.6,21.1
328.0,78.7,37.5,60.0,58.7,20.6
328.5,78.7,36.4,59.6,58.3,21.2
329.0,78.6,36.7,59.1,58.1,21.0
329.5,77.9,36.3,57.4,57.2,20.8
330.0,76.8,35.4,57.1,56.4,20.7
330.5,76.9,35.1,56.4,56.1,20.9
331.0,77.2,34.9,54.7,55.6,21.2
331.5,74.9,35.3,55.4,55.2,19.8
332.0,74.4,35.7,53.9,54.7,19.4
332.5,75.6,34.8,52.8,54.4,20.4
333.0,73.8,34.7,52.0,53.5,19.6
333.5,73.9,34.9,50.9,53.2,19.6
334.0,74.0,35.3,50.8,53.4,19.5
334.5,74.0,34.7,50.6,53.1,19.8
335.0,73.4,34.8,50.1,52.8,19.4
335.5,73.2,34.1,49.3,52.2,19.7
336.0,72.0,34.3,49.5,51.9,18.9
336.5,72.4,33.7,48.6,51.6,19.5
337.0,71.7,33.9,47.4,51.0,19.1
337.5,71.9,34.1,47.7,51.2,19.1
338.0,71.6,33.7,46.8,50.7,19.2
338.5,70.9,33.0,46.0,50.0,19.3
339.0,70.3,33.3,45.1,49.6,18.9
339.5,70.1,33.3,44.5,49.3,18.9
340.0,69.7,33.0,43.7,48.8,18.9
340.5,69.2,32.7,42.8,48.2,18.9
341.0,69.6,32.4,42.2,48.1,19.3
341.5,68.4,32.5,42.4,47.8,18.6
342.0,69.0,32.3,42.3,47.9,19.0
342.5,68.7,32.0,41.0,47.3,19.1
343.0,69.1,31.8,40.8,47.2,19.4
343.5,68.3,32.0,40.0,46.8,19.1
344.0,68.0,31.4,40.4,46.6,19.0
344.5,67.3,31.5,38.6,45.8,19.0
345.0,67.6,30.8,38.6,45.7,19.4
345.5,66.2,31.2,38.3,45.2,18.5
346.0,66.1,31.5,38.5,45.4,18.3
346.5,65.9,31.5,37.7,45.0,18.3
347.0,64.8,31.4,37.4,44.5,17.8
347.5,64.0,31.3,36.8,44.0,17.5
348.0,64.5,31.5,36.8,44.2,17.7
348.5,63.9,31.3,36.5,43.9,17.5
349.0,63.1,31.2,37.2,43.8,16.9
349.5,62.9,31.0,36.6,43.5,17.0
350.0,62.9,31.4,36.6,43.6,16.9
350.5,63.0,30.8,36.5,43.4,17.2
351.0,62.4,30.8,36.3,43.2,16.9
351.5,61.7,30.9,36.6,43.1,16.4
352.0,61.3,30.5,35.9,42.6,16.5
352.5,59.7,30.6,35.7,42.0,15.5
353.0,60.6,30.8,35.4,42.3,16.1
353.5,59.5,30.6,34.9,41.6,15.6
354.0,59.1,30.1,34.6,41.3,15.6
354.5,58.0,30.0,34.9,41.0,15.0
355.0,57.8,30.4,34.3,40.8,14.8
355.5,57.9,30.6,34.6,41.0,14.8
356.0,56.3,30.4,33.9,40.2,14.1
356.5,56.3,30.1,33.8,40.1,14.2
357.0,55.8,30.2,33.6,39.9,13.9
357.5,55.1,30.3,33.6,39.7,13.5
358.0,55.1,29.9,32.8,39.2,13.8
358.5,55.4,,33.0,44.2,15.8
359.0,54.4,,32.5,43.4,15.4
359.5,54.0,,31.8,42.9,15.6
360.0,54.1,,31.7,42.9,15.9
360.5,54.4,,31.7,43.0,16.0
361.0,53.2,,31.3,42.2,15.5
361.5,53.0,,31.2,42.1,15.3
362.0,52.7,,31.0,41.8,15.3
362.5,52.2,,30.7,41.4,15.1
363.0,51.4,,30.5,41.0,14.8
363.5,51.2,,30.7,40.9,14.5
364.0,51.1,,30.4,40.7,14.6
364.5,50.9,,30.1,40.5,14.7
365.0,50.2,,29.7,40.0,14.5
365.5,49.9,,29.2,39.5,14.6
366.0,49.2,,28.9,39.1,14.3
366.5,48.7,,28.8,38.8,14.1
367.0,49.2,,28.6,38.9,14.6
367.5,50.3,,28.4,39.4,15.5
368.0,49.4,,28.6,39.0,14.7
368.5,50.4,,28.3,39.4,15.6
369.0,50.4,,28.4,39.4,15.5
369.5,49.8,,28.3,39.0,15.3
370.0,49.4,,28.0,38.7,15.1
370.5,50.1,,28.0,39.1,15.6
371.0,49.6,,28.3,38.9,15.1
371.5,49.4,,27.4,38.4,15.5
372.0,49.9,,27.9,38.9,15.5
372.5,49.2,,27.4,38.3,15.4
373.0,49.2,,27.3,38.2,15.5
373.5,48.7,,27.3,38.0,15.2
374.0,48.2,,26.9,37.5,15.1
374.5,48.1,,26.7,37.4,15.2
375.0,48.9,,26.8,37.9,15.6
375.5,48.3,,26.8,37.6,15.2
376.0,47.1,,26.8,37.0,14.4
376.5,46.7,,26.4,36.6,14.4
377.0,46.4,,26.4,36.4,14.1
377.5,45.2,,,45.2,
378.0,44.8,,,44.8,
378.5,44.3,,,44.3,
379.0,43.9,,,43.9,
379.5,43.8,,,43.8,
380.0,43.0,,,43.0,
380.5,42.0,,,42.0,
381.0,41.8,,,41.8,
381.5,40.8,,,40.8,
382.0,41.2,,,41.2,
382.5,40.0,,,40.0,
383.0,39.6,,,39.6,
383.5,38.2,,,38.2,
384.0,38.1,,,38.1,
384.5,38.0,,,38.0,
385.0,37.4,,,37.4,
385.5,37.3,,,37.3,
386.0,36.8,,,36.8,
386.5,36.4,,,36.4,
387.0,36.0,,,36.0,
387.5,36.1,,,36.1,
388.0,35.5,,,35.5,
388.5,35.1,,,35.1,
389.0,35.1,,,35.1,
389.5,34.7,,,34.7,
390.0,34.9,,,34.9,
390.5,34.6,,,34.6,
391.0,35.0,,,35.0,
391.5,34.9,,,34.9,
392.0,34.9,,,34.9,
392.5,35.1,,,35.1,
393.0,34.9,,,34.9,
393.5,34.4,,,34.4,
394.0,34.1,,,34.1,
394.5,34.5,,,34.5,
395.0,34.5,,,34.5,
395.5,33.8,,,33.8,
396.0,33.7,,,33.7,
396.5,33.1,,,33.1,
397.0,33.2,,,33.2,
397.5,33.4,,,33.4,
398.0,33.2,,,33.2,
398.5,32.8,,,32.8,
399.0,32.6,,,32.6,
399.5,32.7,,,32.7,
400.0,32.3,,,32.3,
400.5,31.9,,,31.9,
401.0,32.1,,,32.1,
401.5,31.9,,,31.9,
402.0,31.9,,,31.9,
402.5,31.8,,,31.8,
403.0,31.6,,,31.6,
403.5,31.7,,,31.7,
404.0,31.6,,,31.6,
404.5,31.8,,,31.8,
405.0,32.1,,,32.1,
405.5,31.8,,,31.8,
406.0,32.4,,,32.4,
406.5,32.4,,,32.4,
407.0,32.5,,,32.5,
407.5,33.1,,,33.1,
408.0,32.4,,,32.4,
408.5,32.4,,,32.4,
409.0,32.1,,,32.1,
409.5,31.7,,,31.7,
410.0,31.6,,,31.6,
410.5,31.9,,,31.9,
411.0,31.9,,,31.9,
411.5,31.6,,,31.6,
412.0,31.2,,,31.2,
412.5,31.7,,,31.7,
413.0,31.5,,,31.5,
413.5,31.2,,,31.2,
414.0,31.4,,,31.4,
414.5,30.7,,,30.7,
415.0,31.4,,,31.4,
415.5,30.9,,,30.9,
416.0,30.8,,,30.8,
416.5,30.9,,,30.9,
417.0,30.9,,,30.9,
417.5,30.9,,,30.9,
418.0,31.1,,,31.1,
418.5,30.5,,,30.5,
419.0,30.8,,,30.8,
419.25,30.6,,,30.6,