File: 01_Data/Wool_Rug/Cone/Wool_Rug_HRRPUA_25.csv
Time after Ignition,Wool_Rug_R1,Wool_Rug_R2,Wool_Rug_R3,Wool_Rug_R4,Mean,Std. Dev.
0.0,104.4,23.8,30.6,20.6,44.9,39.9
0.5,105.8,33.8,43.4,32.3,53.8,35.0
1.0,108.8,42.2,52.9,42.0,61.5,32.0
1.5,109.3,58.2,68.1,59.8,73.9,24.0
2.0,112.6,68.4,78.5,74.2,83.4,19.9
2.5,111.2,82.4,94.7,89.1,94.4,12.3
3.0,114.5,96.4,104.6,101.9,104.4,7.6
3.5,114.4,107.2,114.4,113.5,112.4,3.5
4.0,117.0,113.9,122.3,126.7,120.0,5.7
4.5,117.9,122.2,129.8,135.5,126.3,7.8
5.0,119.4,127.6,134.5,141.9,130.8,9.6
5.5,119.3,132.3,141.3,146.7,134.9,12.0
6.0,120.6,135.9,144.5,157.6,139.6,15.5
6.5,121.8,137.1,147.3,158.6,141.2,15.6
7.0,123.0,136.7,144.5,159.0,140.8,15.0
7.5,120.4,136.3,146.9,163.1,141.7,17.9
8.0,122.4,134.7,149.8,163.6,142.6,17.9
8.5,122.8,130.5,149.4,169.1,143.0,20.7
9.0,124.2,127.5,145.4,167.9,141.3,20.1
9.5,125.4,121.1,144.0,166.3,139.2,20.6
10.0,125.9,117.8,140.4,160.6,136.2,18.8
10.5,127.1,114.2,136.2,159.8,134.3,19.3
11.0,127.9,110.7,130.8,156.0,131.4,18.7
11.5,129.3,107.6,127.6,153.1,129.4,18.6
12.0,129.5,100.4,120.8,147.5,124.6,19.6
12.5,128.0,95.4,119.5,142.1,121.2,19.6
13.0,128.4,93.6,112.5,139.2,118.5,19.9
13.5,127.3,88.4,107.8,133.8,114.3,20.5
14.0,128.4,85.4,99.1,130.9,110.9,22.4
14.5,128.1,80.8,93.7,124.9,106.9,23.3
15.0,128.9,76.8,90.7,123.0,104.9,25.1
15.5,130.5,73.5,84.6,118.9,101.9,27.2
16.0,130.3,70.4,81.5,114.1,99.1,27.9
16.5,131.4,66.0,75.1,112.1,96.1,30.8
17.0,130.0,64.1,70.6,107.3,93.0,31.2
17.5,131.9,61.3,65.1,104.1,90.6,33.7
18.0,131.9,58.4,61.7,100.9,88.2,34.9
18.5,133.6,56.7,57.3,96.9,86.1,36.8
19.0,131.1,54.2,52.8,94.7,83.2,37.4
19.5,133.4,52.6,48.1,91.2,81.3,39.8
20.0,130.7,50.0,43.5,88.9,78.3,40.3
20.5,133.2,48.9,41.5,86.2,77.4,42.0
21.0,130.7,46.5,37.7,83.4,74.6,42.3
21.5,131.5,43.6,34.2,81.6,72.7,44.3
22.0,133.1,42.9,33.4,78.5,72.0,45.1
22.5,133.2,42.2,30.5,76.3,70.6,46.1
23.0,131.8,39.4,28.0,74.1,68.4,46.6
23.5,130.8,38.1,25.9,71.7,66.6,47.0
24.0,130.2,37.1,23.9,68.7,65.0,47.4
24.5,131.7,36.1,21.8,68.3,64.5,48.9
25.0,130.2,34.3,20.1,67.6,63.0,49.0
25.5,130.5,34.0,18.6,65.6,62.2,49.6
26.0,131.5,32.9,16.9,63.5,61.2,50.7
26.5,130.6,32.0,14.9,60.9,59.6,51.0
27.0,131.5,30.9,13.3,59.5,58.8,52.1
27.5,133.0,30.1,11.7,58.3,58.3,53.4
28.0,132.5,29.0,10.2,55.8,56.9,53.8
28.5,130.2,28.5,8.9,56.1,55.9,53.2
29.0,129.0,27.6,8.0,55.1,54.9,53.0
29.5,130.0,27.4,7.1,53.2,54.4,53.8
30.0,129.4,26.7,6.2,52.6,53.8,53.9
30.5,130.9,26.0,5.3,50.9,53.2,55.0
31.0,130.0,25.9,4.4,50.1,52.6,54.8
31.5,128.3,25.6,3.7,48.9,51.6,54.3
32.0,129.1,25.7,3.2,48.7,51.7,54.8
32.5,127.8,25.2,2.8,47.0,50.7,54.5
33.0,127.0,24.5,2.6,45.5,49.9,54.3
33.5,127.6,24.2,2.4,43.5,49.4,54.8
34.0,125.8,24.1,2.0,42.7,48.7,54.1
34.5,126.5,23.9,1.7,42.4,48.6,54.5
35.0,124.1,24.3,1.5,42.2,48.0,53.4
35.5,125.8,23.8,1.3,41.6,48.1,54.3
36.0,125.1,23.3,1.2,40.6,47.5,54.2
36.5,126.2,23.0,1.0,39.5,47.4,54.8
37.0,125.0,22.8,0.9,38.7,46.9,54.4
37.5,123.2,22.5,0.8,38.2,46.2,53.6
38.0,123.8,22.1,0.8,36.9,45.9,54.0
38.5,123.6,21.8,0.8,36.7,45.7,54.0
39.0,125.2,21.9,0.7,35.5,45.8,54.8
39.5,123.5,21.3,0.4,35.1,45.1,54.2
40.0,124.1,21.3,0.2,35.2,45.2,54.5
40.5,122.0,21.3,-0.0,34.4,44.4,53.6
41.0,120.2,21.0,-0.2,33.7,43.7,52.9
41.5,122.6,20.5,-0.3,32.9,43.9,54.2
42.0,121.5,20.9,-0.4,32.2,43.5,53.7
42.5,122.0,20.6,-0.5,31.4,43.4,54.1
43.0,121.1,20.4,-0.6,30.6,42.9,53.7
43.5,121.8,20.2,-0.6,30.1,42.9,54.2
44.0,123.0,20.1,-0.7,29.6,43.0,54.8
44.5,121.8,19.5,-0.7,28.9,42.4,54.4
45.0,119.9,19.6,-0.7,28.1,41.7,53.5
45.5,118.5,19.5,-0.8,27.5,41.2,52.9
46.0,120.2,19.0,-0.8,26.8,41.3,53.9
46.5,119.4,18.5,-0.8,26.7,41.0,53.6
47.0,119.3,18.3,-0.8,26.5,40.8,53.6
47.5,119.2,17.3,-0.8,25.6,40.3,53.7
48.0,117.7,16.6,-0.8,25.2,39.7,53.1
48.5,118.0,15.9,-0.8,25.6,39.7,53.4
49.0,118.1,15.6,-0.8,24.9,39.5,53.5
49.5,118.8,15.3,-0.8,24.6,39.4,53.9
50.0,119.5,15.0,-1.0,24.7,39.5,54.4
50.5,116.7,14.2,-1.1,24.1,38.5,53.1
51.0,116.8,13.9,-1.1,23.8,38.3,53.3
51.5,115.6,13.7,-1.2,23.4,37.9,52.8
52.0,117.5,13.6,-0.9,23.6,38.5,53.7
52.5,117.1,13.1,-0.8,23.3,38.2,53.5
53.0,116.3,12.9,-0.6,23.4,38.0,53.2
53.5,114.7,12.9,-0.5,23.4,37.7,52.3
54.0,114.5,12.8,-0.4,23.3,37.6,52.2
54.5,114.6,12.6,-0.2,23.2,37.5,52.2
55.0,114.5,12.1,0.1,23.3,37.5,52.2
55.5,114.5,11.6,0.3,23.5,37.5,52.2
56.0,112.2,11.4,0.3,23.4,36.8,51.1
56.5,113.6,11.1,0.4,23.5,37.1,51.9
57.0,112.2,10.6,0.4,23.6,36.7,51.2
57.5,113.1,10.0,0.4,23.7,36.8,51.8
58.0,111.9,9.5,0.4,23.8,36.4,51.2
58.5,113.2,9.0,0.5,23.8,36.6,52.0
59.0,111.6,8.6,0.5,24.5,36.3,51.2
59.5,112.5,8.2,0.6,24.4,36.4,51.7
60.0,111.2,8.0,0.7,24.1,36.0,51.1
60.5,110.9,7.9,0.7,24.3,35.9,50.9
61.0,110.7,7.8,0.8,24.5,35.9,50.8
61.5,111.3,7.4,0.8,24.6,36.0,51.2
62.0,110.6,7.2,0.9,24.4,35.8,50.9
62.5,110.0,6.7,0.9,24.5,35.5,50.6
63.0,111.5,6.6,0.9,24.4,35.9,51.4
63.5,110.3,6.2,0.9,24.2,35.4,50.9
64.0,111.5,6.0,1.2,24.2,35.7,51.5
64.5,110.5,5.6,1.4,24.3,35.5,51.0
65.0,110.5,5.3,1.6,23.7,35.3,51.0
65.5,110.8,5.2,1.8,23.8,35.4,51.2
66.0,110.0,5.0,2.2,23.4,35.1,50.8
66.5,109.5,4.9,2.5,23.3,35.0,50.5
67.0,110.3,4.8,2.8,23.3,35.3,50.9
67.5,110.7,4.7,3.0,23.3,35.4,51.0
68.0,108.3,4.6,3.1,23.4,34.8,49.8
68.5,110.6,4.6,3.3,23.4,35.5,50.9
69.0,108.6,4.5,3.4,23.5,35.0,49.9
69.5,108.3,4.5,3.5,23.4,34.9,49.8
70.0,107.7,4.5,3.5,23.3,34.8,49.5
70.5,107.9,4.4,3.6,23.7,34.9,49.5
71.0,107.3,4.4,3.6,23.8,34.8,49.2
71.5,108.0,4.4,3.7,23.8,35.0,49.6
72.0,107.1,4.4,3.7,24.1,34.8,49.1
72.5,107.3,4.3,3.8,24.4,34.9,49.2
73.0,108.2,4.4,3.9,24.6,35.3,49.6
73.5,107.2,4.3,4.1,25.3,35.2,49.0
74.0,105.6,4.4,4.3,25.1,34.9,48.2
74.5,107.0,4.4,4.5,25.2,35.3,48.8
75.0,103.9,4.4,4.6,25.5,34.6,47.2
75.5,105.6,4.4,4.8,25.2,35.0,48.1
76.0,105.1,4.3,4.8,25.5,34.9,47.8
76.5,102.2,4.5,4.9,25.5,34.3,46.4
77.0,103.3,4.7,4.9,25.7,34.6,46.8
77.5,101.2,4.9,5.0,25.7,34.2,45.7
78.0,101.6,5.1,5.0,26.0,34.4,45.8
78.5,102.4,5.3,5.2,25.5,34.6,46.2
79.0,101.8,5.5,5.2,25.8,34.6,45.9
79.5,100.8,5.5,5.0,25.9,34.3,45.4
80.0,100.5,5.6,5.0,25.8,34.2,45.2
80.5,100.4,5.9,4.8,25.9,34.3,45.2
81.0,99.0,6.2,4.8,26.2,34.0,44.4
81.5,98.5,6.4,4.8,27.2,34.2,44.1
82.0,97.8,6.6,4.9,26.8,34.0,43.7
82.5,96.8,6.9,5.2,26.8,33.9,43.0
83.0,98.0,7.3,5.6,27.3,34.5,43.5
83.5,96.6,7.7,6.1,27.9,34.6,42.6
84.0,98.0,7.8,6.5,28.0,35.1,43.1
84.5,96.2,7.9,6.8,28.1,34.8,42.1
85.0,97.6,8.0,7.4,27.9,35.2,42.7
85.5,97.3,8.4,7.7,28.3,35.4,42.4
86.0,95.4,8.7,8.3,28.8,35.3,41.2
86.5,97.0,9.0,8.9,29.1,36.0,41.7
87.0,96.9,9.2,9.6,29.6,36.3,41.5
87.5,96.3,9.3,10.4,30.0,36.5,41.0
88.0,95.6,9.5,11.3,30.2,36.7,40.4
88.5,95.7,9.6,12.4,30.0,36.9,40.2
89.0,94.9,9.9,13.2,30.6,37.1,39.5
89.5,93.8,10.2,14.1,30.5,37.1,38.8
90.0,92.9,10.4,15.0,30.7,37.3,38.1
90.5,91.2,10.6,15.8,30.9,37.1,37.0
91.0,92.5,10.8,16.3,31.2,37.7,37.5
91.5,91.6,11.2,17.0,32.2,38.0,36.8
92.0,92.0,11.7,17.7,32.5,38.5,36.7
92.5,91.0,12.3,18.3,32.0,38.4,36.0
93.0,92.3,12.5,19.6,32.6,39.2,36.3
93.5,90.5,12.9,20.9,32.8,39.3,35.1
94.0,91.7,13.2,22.5,32.9,40.1,35.3
94.5,91.2,13.5,24.5,33.5,40.7,34.7
95.0,90.2,13.9,26.2,33.6,41.0,33.8
95.5,90.1,14.0,27.5,33.6,41.3,33.6
96.0,90.9,14.4,29.0,34.7,42.2,33.6
96.5,90.6,14.7,30.6,34.5,42.6,33.1
97.0,90.2,14.8,31.4,34.3,42.7,32.9
97.5,90.7,14.7,32.3,35.2,43.2,32.9
98.0,90.3,15.0,33.6,35.6,43.6,32.5
98.5,89.8,15.2,34.6,35.7,43.8,32.0
99.0,90.7,15.7,35.5,36.6,44.6,32.2
99.5,90.0,15.8,35.8,36.6,44.5,31.8
100.0,90.2,16.0,36.3,38.0,45.1,31.7
100.5,89.2,16.6,36.6,38.2,45.2,31.0
101.0,89.0,16.8,37.2,38.5,45.4,30.7
101.5,88.2,17.6,37.9,39.1,45.7,30.0
102.0,88.9,18.0,38.3,39.0,46.0,30.2
102.5,86.9,18.4,39.7,39.2,46.0,29.0
103.0,87.0,18.9,39.7,39.8,46.3,28.9
103.5,86.7,19.3,40.0,40.0,46.5,28.5
104.0,86.2,19.9,40.7,39.9,46.7,28.1
104.5,84.5,20.2,40.8,41.1,46.6,27.1
105.0,85.3,20.4,40.8,41.4,47.0,27.3
105.5,86.0,20.7,41.4,41.2,47.3,27.5
106.0,84.2,21.2,42.4,41.5,47.3,26.4
106.5,84.4,21.1,42.0,41.6,47.3,26.6
107.0,84.7,21.4,42.4,42.3,47.7,26.6
107.5,83.5,21.7,43.1,43.2,47.9,25.8
108.0,84.5,22.5,43.4,43.0,48.4,26.0
108.5,83.3,23.0,43.8,43.6,48.4,25.2
109.0,83.0,23.7,44.0,43.8,48.6,24.8
109.5,81.7,24.3,44.4,43.5,48.5,24.0
110.0,82.7,25.3,44.2,44.2,49.1,24.1
110.5,81.9,26.0,44.5,44.6,49.3,23.5
111.0,81.8,26.5,44.5,44.4,49.3,23.3
111.5,81.4,27.2,43.8,44.6,49.2,22.9
112.0,80.2,28.0,44.1,43.9,49.1,22.1
112.5,80.9,28.7,44.3,44.4,49.6,22.1
113.0,81.1,29.2,43.6,45.2,49.8,22.1
113.5,80.2,29.8,43.6,44.2,49.4,21.5
114.0,80.3,30.1,43.2,44.0,49.4,21.6
114.5,79.9,30.3,43.4,44.7,49.6,21.3
115.0,79.6,31.5,43.3,44.3,49.7,20.8
115.5,79.8,31.0,42.8,45.0,49.6,21.0
116.0,78.4,31.5,43.1,44.2,49.3,20.2
116.5,79.1,31.2,42.1,45.0,49.4,20.7
117.0,78.3,31.1,41.8,45.5,49.2,20.4
117.5,78.1,31.2,40.6,45.7,48.9,20.4
118.0,77.4,30.9,39.7,45.9,48.5,20.2
118.5,77.3,30.6,40.1,45.7,48.4,20.2
119.0,76.6,31.5,39.3,46.4,48.5,19.7
119.5,78.3,30.8,39.3,46.5,48.7,20.7
120.0,77.4,31.2,38.3,46.6,48.4,20.4
120.5,76.2,30.9,38.6,45.9,47.9,19.9
121.0,77.1,31.0,37.9,46.7,48.2,20.3
121.5,77.1,30.8,37.2,47.2,48.1,20.5
122.0,77.6,30.8,36.5,46.5,47.8,20.9
122.5,77.1,31.1,36.0,47.5,48.0,20.6
123.0,76.3,30.9,35.4,47.2,47.4,20.4
123.5,76.4,30.5,34.9,47.4,47.3,20.7
124.0,79.1,30.7,34.5,48.1,48.1,22.0
124.5,77.0,30.4,33.9,48.0,47.3,21.2
125.0,76.0,30.6,33.7,47.7,47.0,20.7
125.5,76.3,30.4,33.0,47.9,46.9,21.1
126.0,76.8,30.1,32.3,48.7,47.0,21.5
126.5,75.7,30.6,31.9,48.2,46.6,21.0
127.0,75.8,31.0,31.7,48.8,46.8,21.0
127.5,76.2,31.0,30.7,48.4,46.6,21.4
128.0,77.1,31.4,30.7,47.9,46.8,21.7
128.5,76.5,32.4,30.2,48.2,46.8,21.3
129.0,77.2,31.7,29.4,47.3,46.4,22.0
129.5,75.4,32.9,29.2,47.0,46.1,21.0
130.0,75.8,32.8,28.1,47.6,46.1,21.5
130.5,75.6,33.2,27.8,46.2,45.7,21.4
131.0,76.1,33.1,27.7,45.5,45.6,21.7
131.5,76.0,33.7,26.9,45.3,45.5,21.7
132.0,75.0,33.1,27.1,45.0,45.0,21.3
132.5,77.1,33.7,26.1,44.4,45.3,22.4
133.0,75.1,34.1,25.5,44.2,44.7,21.6
133.5,75.5,33.7,24.7,44.1,44.5,22.2
134.0,75.6,34.2,24.2,44.2,44.5,22.3
134.5,76.4,33.8,23.8,43.9,44.5,22.8
135.0,78.2,33.8,23.6,43.3,44.7,23.8
135.5,76.4,33.5,23.5,43.1,44.1,23.0
136.0,78.0,34.1,23.5,42.4,44.5,23.6
136.5,76.9,34.5,23.4,42.1,44.2,23.1
137.0,76.5,34.9,22.8,42.0,44.0,23.0
137.5,76.8,34.7,22.9,41.7,44.1,23.2
138.0,76.7,35.0,22.3,41.6,43.9,23.3
138.5,76.9,35.4,22.7,40.3,43.8,23.3
139.0,76.7,35.2,22.7,40.4,43.7,23.2
139.5,77.2,34.9,22.6,40.0,43.7,23.5
140.0,76.9,35.1,22.6,40.4,43.8,23.3
140.5,76.6,35.3,22.2,40.6,43.7,23.3
141.0,77.2,35.6,22.4,40.2,43.9,23.5
141.5,78.3,34.9,22.6,39.3,43.8,24.1
142.0,78.6,35.2,22.4,39.0,43.8,24.3
142.5,77.3,35.3,22.8,38.7,43.5,23.5
143.0,78.3,35.1,22.3,38.8,43.6,24.2
143.5,79.0,35.8,22.4,38.3,43.9,24.5
144.0,76.7,35.4,22.6,38.0,43.2,23.3
144.5,77.2,35.5,22.8,38.4,43.5,23.5
145.0,78.0,35.9,22.7,37.4,43.5,23.9
145.5,76.8,34.9,23.0,37.6,43.1,23.4
146.0,77.8,35.2,23.1,36.7,43.2,23.9
146.5,78.4,35.1,23.5,36.6,43.4,24.1
147.0,77.8,35.6,23.4,36.5,43.3,23.7
147.5,76.7,35.2,23.4,35.7,42.7,23.4
148.0,76.5,35.3,23.9,35.7,42.8,23.1
148.5,75.8,35.5,23.8,35.2,42.6,22.8
149.0,76.3,35.3,23.4,35.5,42.6,23.2
149.5,75.8,35.1,23.8,35.3,42.5,22.8
150.0,75.3,34.6,23.6,35.5,42.3,22.7
150.5,74.8,34.4,23.4,35.0,41.9,22.6
151.0,75.4,34.7,23.8,34.8,42.2,22.7
151.5,74.2,34.0,23.8,34.7,41.7,22.2
152.0,74.1,33.7,23.8,34.4,41.5,22.3
152.5,73.3,33.4,23.8,34.6,41.3,21.9
153.0,72.9,33.6,23.9,34.4,41.2,21.7
153.5,72.5,33.2,24.3,35.0,41.2,21.3
154.0,73.6,32.9,24.0,34.8,41.3,22.0
154.5,73.0,33.2,24.8,33.7,41.2,21.6
155.0,73.1,33.4,24.6,34.8,41.5,21.6
155.5,72.5,33.1,24.8,34.6,41.3,21.3
156.0,71.9,32.8,24.8,34.2,41.0,21.0
156.5,72.7,32.3,24.6,34.5,41.0,21.6
157.0,72.6,32.0,25.0,34.2,41.0,21.5
157.5,71.7,31.6,25.0,33.9,40.5,21.1
158.0,72.3,31.4,25.3,33.6,40.7,21.4
158.5,72.2,31.6,25.6,33.9,40.8,21.2
159.0,71.8,31.7,25.7,33.4,40.6,21.0
159.5,71.1,31.4,25.6,33.6,40.4,20.7
160.0,71.7,31.0,25.7,33.3,40.4,21.1
160.5,71.4,30.6,26.0,33.5,40.4,20.9
161.0,70.2,30.5,26.0,33.3,40.0,20.4
161.5,70.9,30.6,26.1,33.8,40.4,20.6
162.0,70.5,30.1,26.5,33.2,40.1,20.5
162.5,69.5,30.3,26.6,34.2,40.1,19.8
163.0,71.3,29.8,26.5,34.4,40.5,20.8
163.5,69.5,29.7,26.7,34.8,40.2,19.8
164.0,69.4,29.4,26.9,34.5,40.0,19.8
164.5,70.2,29.1,26.8,34.1,40.1,20.3
165.0,70.0,28.8,27.9,34.4,40.3,20.0
165.5,69.4,28.7,27.4,35.0,40.1,19.8
166.0,68.8,28.6,27.3,34.6,39.8,19.6
166.5,69.3,28.9,27.4,34.8,40.1,19.8
167.0,69.0,28.2,27.7,34.3,39.8,19.7
167.5,69.7,29.0,27.5,34.2,40.1,19.9
168.0,69.6,28.7,27.6,34.5,40.1,19.9
168.5,68.4,28.7,27.5,34.9,39.9,19.3
169.0,68.2,28.4,27.9,34.6,39.8,19.2
169.5,67.3,28.5,27.6,34.7,39.5,18.8
170.0,66.9,28.3,27.9,34.4,39.4,18.6
170.5,66.3,27.9,27.3,34.7,39.0,18.4
171.0,64.5,27.6,27.1,34.1,38.3,17.7
171.5,65.3,27.0,26.9,34.5,38.4,18.3
172.0,66.2,26.9,26.9,35.0,38.7,18.7
172.5,66.2,26.2,27.0,34.6,38.5,18.9
173.0,65.1,26.0,26.8,35.3,38.3,18.4
173.5,66.0,26.0,27.0,35.1,38.5,18.8
174.0,64.7,26.1,27.2,35.0,38.3,18.1
174.5,63.5,25.9,26.9,35.1,37.8,17.6
175.0,63.2,25.5,26.7,34.7,37.5,17.6
175.5,62.6,25.6,26.7,35.4,37.6,17.3
176.0,62.4,25.3,26.7,35.7,37.5,17.2
176.5,62.2,25.2,27.3,35.2,37.5,17.0
177.0,61.1,25.3,27.1,35.0,37.1,16.5
177.5,61.4,24.6,26.7,35.0,36.9,16.9
178.0,61.4,24.8,27.3,35.0,37.1,16.8
178.5,61.4,24.6,26.8,34.6,36.9,16.9
179.0,61.1,24.6,26.8,34.7,36.8,16.8
179.5,61.8,24.2,26.7,34.3,36.7,17.3
180.0,61.1,24.3,26.8,34.3,36.6,16.9
180.5,60.5,24.1,26.8,34.4,36.4,16.6
181.0,61.0,24.1,26.5,34.3,36.5,16.9
181.5,60.8,24.1,26.3,34.2,36.3,16.9
182.0,61.0,23.7,26.2,34.1,36.3,17.1
182.5,60.8,23.2,25.9,34.0,36.0,17.2
183.0,61.3,22.8,26.2,34.3,36.2,17.5
183.5,61.9,22.6,25.8,34.1,36.1,17.9
184.0,61.9,22.4,25.8,34.4,36.1,17.9
184.5,61.3,22.1,25.4,33.8,35.7,17.8
185.0,61.4,21.9,25.5,34.2,35.8,17.8
185.5,61.7,21.8,25.3,34.2,35.7,18.1
186.0,63.2,21.6,25.9,34.1,36.2,18.8
186.5,60.2,21.8,25.2,34.1,35.3,17.4
187.0,60.2,21.4,25.7,33.8,35.3,17.4
187.5,60.7,21.3,26.0,34.0,35.5,17.6
188.0,61.0,21.4,26.1,34.1,35.7,17.7
188.5,62.1,21.5,26.1,34.2,35.9,18.2
189.0,60.8,21.5,26.1,33.9,35.6,17.6
189.5,61.4,21.3,26.4,34.2,35.8,17.9
190.0,61.8,21.3,26.5,33.6,35.8,18.0
190.5,60.9,21.0,26.5,33.6,35.5,17.7
191.0,60.9,21.1,27.2,33.6,35.7,17.6
191.5,63.0,20.5,26.6,33.9,36.0,18.8
192.0,61.3,20.8,26.6,34.0,35.7,17.9
192.5,60.6,20.4,26.9,33.9,35.5,17.7
193.0,62.0,20.6,26.6,34.3,35.9,18.3
193.5,60.6,20.6,26.3,34.2,35.4,17.7
194.0,61.4,20.5,26.4,34.4,35.7,18.1
194.5,61.8,20.6,26.3,34.2,35.7,18.2
195.0,61.8,20.7,26.0,34.5,35.8,18.2
195.5,61.0,21.1,26.1,34.8,35.8,17.8
196.0,61.6,21.1,26.0,34.5,35.8,18.1
196.5,60.3,21.5,26.0,33.7,35.4,17.4
197.0,60.4,21.7,26.0,34.5,35.7,17.3
197.5,60.3,21.8,25.8,34.5,35.6,17.3
198.0,60.1,22.0,25.7,34.4,35.5,17.2
198.5,59.0,21.8,25.3,34.6,35.2,16.8
199.0,60.1,21.9,25.0,34.2,35.3,17.4
199.5,59.7,21.9,25.0,34.6,35.3,17.2
200.0,58.9,22.1,24.6,34.5,35.0,16.8
200.5,59.1,22.2,24.5,34.3,35.0,16.9
201.0,58.5,21.9,24.5,34.5,34.8,16.7
201.5,57.8,21.6,24.2,34.2,34.5,16.5
202.0,57.7,21.4,24.4,34.3,34.5,16.4
202.5,58.2,21.5,24.1,34.7,34.6,16.7
203.0,58.0,21.4,24.3,34.5,34.5,16.6
203.5,58.9,21.3,24.2,34.2,34.6,17.1
204.0,58.0,21.5,24.2,34.4,34.5,16.6
204.5,57.7,21.2,24.1,34.6,34.4,16.6
205.0,58.1,21.1,24.2,34.4,34.4,16.8
205.5,57.8,20.7,23.5,34.3,34.1,16.9
206.0,57.5,20.5,23.9,34.8,34.2,16.7
206.5,57.5,20.4,24.2,34.4,34.1,16.7
207.0,57.1,20.0,24.0,34.5,33.9,16.6
207.5,58.2,20.3,24.0,34.4,34.2,17.1
208.0,58.6,19.7,24.3,34.2,34.2,17.3
208.5,58.0,19.9,24.1,34.9,34.2,17.0
209.0,58.7,20.1,24.6,33.8,34.3,17.3
209.5,58.5,19.7,24.2,33.8,34.1,17.3
210.0,58.2,19.3,24.3,34.0,33.9,17.3
210.5,58.5,19.7,24.3,33.8,34.1,17.3
211.0,58.8,20.0,24.3,33.5,34.1,17.4
211.5,58.9,19.5,24.3,33.6,34.1,17.5
212.0,58.8,19.6,24.3,33.4,34.0,17.5
212.5,58.3,19.6,24.5,33.4,34.0,17.2
213.0,58.6,19.2,24.4,33.2,33.8,17.5
213.5,58.6,19.6,24.1,33.1,33.9,17.4
214.0,58.8,19.2,24.2,33.4,33.9,17.6
214.5,58.3,19.5,24.5,33.0,33.8,17.3
215.0,60.0,19.4,24.4,33.4,34.3,18.1
215.5,58.7,19.6,24.5,33.3,34.0,17.4
216.0,60.0,19.7,24.5,33.0,34.3,18.0
216.5,60.3,19.6,24.6,32.9,34.4,18.2
217.0,60.2,19.5,24.6,32.4,34.2,18.2
217.5,61.1,19.3,24.5,32.7,34.4,18.7
218.0,60.9,19.7,24.5,32.6,34.4,18.5
218.5,61.1,19.8,24.8,32.3,34.5,18.5
219.0,61.9,20.5,24.4,32.5,34.8,18.7
219.5,61.7,20.5,24.4,32.2,34.7,18.6
220.0,61.7,21.0,24.3,32.5,34.9,18.5
220.5,62.1,21.0,24.1,32.0,34.8,18.8
221.0,63.0,21.0,24.0,32.6,35.1,19.2
221.5,61.6,21.3,24.1,33.0,35.0,18.4
222.0,62.3,21.9,24.2,32.0,35.1,18.6
222.5,61.1,21.7,24.3,32.6,34.9,18.1
223.0,61.4,21.9,24.2,32.5,35.0,18.2
223.5,61.2,22.0,23.9,32.5,34.9,18.1
224.0,61.5,21.8,23.8,32.9,35.0,18.3
224.5,61.3,21.8,24.1,31.9,34.8,18.2
225.0,61.8,21.7,24.2,32.1,35.0,18.4
225.5,59.9,21.8,23.8,32.4,34.5,17.6
226.0,60.2,21.6,24.2,31.4,34.4,17.7
226.5,61.2,21.5,24.2,31.9,34.7,18.2
227.0,60.8,21.3,24.0,31.7,34.4,18.1
227.5,61.3,21.1,24.0,31.3,34.4,18.4
228.0,60.8,21.0,23.6,31.8,34.3,18.3
228.5,60.5,20.9,23.9,31.1,34.1,18.1
229.0,60.7,20.9,23.5,31.0,34.0,18.3
229.5,61.0,20.8,23.4,30.9,34.1,18.5
230.0,60.3,20.3,23.2,31.1,33.7,18.3
230.5,61.0,20.5,23.2,31.2,34.0,18.6
231.0,61.0,20.9,23.3,31.3,34.1,18.4
231.5,61.2,20.2,23.4,31.1,34.0,18.7
232.0,61.6,20.6,23.0,31.0,34.0,18.9
232.5,61.8,20.2,22.9,32.0,34.2,19.1
233.0,62.7,20.5,22.6,31.0,34.2,19.6
233.5,63.2,20.5,22.7,31.3,34.4,19.7
234.0,64.1,20.5,22.6,31.7,34.8,20.2
234.5,64.3,20.4,22.3,31.5,34.6,20.4
235.0,63.8,20.0,22.1,31.4,34.3,20.2
235.5,64.4,19.9,21.9,31.3,34.4,20.6
236.0,63.5,19.8,22.1,30.9,34.1,20.2
236.5,64.4,20.2,21.8,31.7,34.5,20.6
237.0,65.0,20.2,21.9,31.4,34.6,20.8
237.5,66.3,20.6,21.8,32.0,35.2,21.4
238.0,65.0,20.4,21.9,31.3,34.7,20.8
238.5,65.0,20.7,21.5,30.8,34.5,20.8
239.0,65.1,20.7,21.9,31.1,34.7,20.8
239.5,64.7,20.5,21.8,30.6,34.4,20.7
240.0,65.5,20.7,21.8,30.8,34.7,21.0
240.5,64.2,20.8,22.0,31.3,34.6,20.3
241.0,64.3,21.3,22.0,30.5,34.5,20.3
241.5,64.6,21.0,21.7,30.6,34.5,20.5
242.0,64.2,21.4,21.6,30.5,34.4,20.3
242.5,64.5,21.1,21.9,30.8,34.6,20.4
243.0,64.8,20.9,21.7,30.9,34.6,20.7
243.5,65.6,21.2,22.0,30.8,34.9,21.0
244.0,63.7,20.4,22.1,30.8,34.3,20.2
244.5,63.4,20.7,21.9,30.5,34.1,20.0
245.0,64.4,20.9,22.3,30.5,34.5,20.4
245.5,63.1,20.8,21.8,30.9,34.1,19.9
246.0,63.3,20.6,21.9,30.9,34.2,19.9
246.5,63.4,20.7,21.7,30.8,34.2,20.0
247.0,62.5,20.6,21.2,31.1,33.8,19.7
247.5,62.1,20.8,20.4,31.0,33.6,19.6
248.0,61.7,20.8,19.1,30.8,33.1,19.8
248.5,61.4,20.2,17.8,31.6,32.8,20.0
249.0,61.1,20.6,16.0,31.3,32.2,20.3
249.5,60.6,20.8,14.9,31.5,32.0,20.3
250.0,60.9,21.0,13.9,31.6,31.8,20.7
250.5,59.6,20.9,13.1,31.0,31.2,20.3
251.0,60.0,21.2,12.4,31.5,31.3,20.7
251.5,60.0,21.3,11.8,31.0,31.0,20.9
252.0,60.7,21.5,11.0,31.4,31.2,21.4
252.5,60.1,21.6,10.5,31.3,30.9,21.2
253.0,59.8,21.7,10.0,31.7,30.8,21.3
253.5,59.5,21.6,9.3,31.5,30.5,21.4
254.0,59.8,21.9,8.5,30.9,30.3,21.7
254.5,59.6,21.7,7.8,30.8,30.0,21.9
255.0,59.7,21.8,7.4,30.9,30.0,22.1
255.5,59.4,22.0,7.1,30.2,29.7,22.0
256.0,58.1,21.9,6.8,30.4,29.3,21.5
256.5,59.5,21.8,6.5,30.3,29.5,22.3
257.0,60.3,22.0,6.4,30.1,29.7,22.7
257.5,59.7,22.4,6.1,29.9,29.5,22.4
258.0,59.8,22.3,5.8,30.1,29.5,22.6
258.5,60.0,22.6,5.5,30.1,29.6,22.8
259.0,58.6,22.6,5.2,30.0,29.1,22.2
259.5,59.6,22.6,5.0,29.7,29.2,22.8
260.0,59.7,23.3,4.8,29.6,29.3,22.8
260.5,59.6,23.0,4.6,29.7,29.2,22.8
261.0,59.7,23.2,4.6,29.7,29.3,22.9
261.5,59.4,23.0,4.2,29.8,29.1,22.9
262.0,58.7,23.4,3.9,29.7,28.9,22.7
262.5,58.8,22.8,3.7,29.5,28.7,22.9
263.0,58.8,23.2,3.5,29.7,28.8,22.9
263.5,58.9,23.4,3.3,29.6,28.8,23.0
264.0,57.8,23.4,2.8,29.7,28.4,22.7
264.5,58.4,23.0,2.4,29.7,28.4,23.2
265.0,58.0,22.5,2.0,29.8,28.1,23.2
265.5,56.9,22.5,1.7,29.8,27.7,22.8
266.0,57.2,22.4,1.5,30.3,27.8,23.0
266.5,56.8,22.3,1.3,30.3,27.7,22.9
267.0,56.9,21.9,1.2,30.4,27.6,23.1
267.5,56.7,21.8,1.0,30.7,27.6,23.0
268.0,56.7,22.0,1.0,31.0,27.7,23.1
268.5,56.1,21.9,0.9,30.4,27.3,22.9
269.0,55.5,21.6,0.8,30.7,27.2,22.7
269.5,54.3,22.2,0.7,30.2,26.9,22.1
270.0,55.3,21.8,0.7,30.1,27.0,22.6
270.5,54.5,22.1,0.7,30.3,26.9,22.2
271.0,54.8,22.5,0.6,29.8,26.9,22.3
271.5,54.7,22.5,0.6,29.7,26.9,22.3
272.0,53.6,22.8,0.6,29.0,26.5,21.8
272.5,53.5,22.9,0.4,28.4,26.3,21.8
273.0,53.7,23.2,0.4,28.0,26.3,21.9
273.5,54.0,23.5,0.3,27.2,26.3,22.0
274.0,53.7,23.7,0.2,27.5,26.3,21.9
274.5,52.9,23.8,0.2,27.2,26.0,21.6
275.0,53.8,24.5,0.2,27.2,26.4,21.9
275.5,53.0,24.6,0.4,27.2,26.3,21.5
276.0,52.6,24.7,0.6,26.9,26.2,21.3
276.5,53.2,25.2,0.8,26.8,26.5,21.4
277.0,53.6,25.3,0.9,26.5,26.6,21.6
277.5,52.9,25.4,1.0,26.7,26.5,21.2
278.0,53.2,25.3,1.1,26.6,26.5,21.3
278.5,52.8,25.9,1.1,26.5,26.6,21.1
279.0,53.1,25.8,1.4,26.6,26.7,21.1
279.5,52.6,26.3,1.7,25.9,26.6,20.8
280.0,52.2,25.8,1.9,25.9,26.4,20.5
280.5,51.9,25.7,2.1,25.8,26.4,20.3
281.0,52.0,25.9,2.2,25.4,26.4,20.4
281.5,52.1,25.9,2.3,25.3,26.4,20.3
282.0,52.2,25.0,2.4,25.2,26.2,20.3
282.5,52.4,25.3,2.5,24.8,26.2,20.4
283.0,51.8,24.6,2.5,24.3,25.8,20.2
283.5,52.0,24.7,2.9,24.3,25.9,20.1
284.0,51.4,24.1,3.1,23.9,25.6,19.8
284.5,50.7,24.3,3.3,23.6,25.5,19.4
285.0,50.3,24.0,3.5,23.3,25.3,19.2
285.5,50.2,23.6,3.6,23.3,25.2,19.1
286.0,49.9,23.5,3.7,23.2,25.1,19.0
286.5,50.0,23.5,3.9,22.5,25.0,19.0
287.0,49.9,23.3,3.9,22.5,24.9,18.9
287.5,50.0,23.4,4.1,22.3,24.9,18.9
288.0,49.0,23.3,4.4,22.0,24.6,18.4
288.5,49.0,23.2,4.4,21.7,24.6,18.4
289.0,48.5,22.9,4.6,21.4,24.4,18.1
289.5,47.6,22.9,4.6,21.3,24.1,17.7
290.0,47.6,22.6,4.8,21.4,24.1,17.6
290.5,46.5,22.3,4.8,21.4,23.8,17.2
291.0,45.8,22.3,4.9,21.1,23.6,16.8
291.5,45.8,22.2,4.9,20.7,23.4,16.8
292.0,45.7,21.8,4.9,21.1,23.4,16.8
292.5,44.6,21.8,4.9,21.1,23.1,16.3
293.0,44.4,21.9,5.0,21.3,23.2,16.2
293.5,44.4,21.6,5.1,21.2,23.1,16.1
294.0,43.7,21.5,5.2,20.9,22.8,15.8
294.5,42.9,21.6,5.4,21.0,22.7,15.4
295.0,43.2,21.3,5.1,20.8,22.6,15.6
295.5,42.3,21.6,4.7,21.0,22.4,15.4
296.0,42.5,21.9,4.3,20.9,22.4,15.6
296.5,43.1,21.6,4.0,21.2,22.5,16.0
297.0,42.3,21.5,3.7,21.1,22.1,15.8
297.5,42.0,21.6,3.3,21.1,22.0,15.8
298.0,41.9,21.7,2.9,21.0,21.9,15.9
298.5,41.6,21.6,2.6,21.3,21.8,15.9
299.0,41.0,21.8,2.4,21.1,21.6,15.8
299.5,41.3,21.6,2.2,21.5,21.7,15.9
300.0,41.5,21.6,2.0,21.4,21.6,16.1
300.5,41.2,21.3,1.9,21.4,21.5,16.0
301.0,40.8,20.9,1.8,21.6,21.3,15.9
301.5,41.1,21.3,1.8,21.6,21.4,16.0
302.0,40.6,21.6,2.0,21.5,21.4,15.8
302.5,40.4,21.7,2.1,21.7,21.5,15.6
303.0,41.0,21.8,2.4,21.3,21.6,15.8
303.5,40.5,21.9,2.8,21.5,21.6,15.4
304.0,39.3,21.8,3.0,21.3,21.4,14.8
304.5,39.6,21.2,3.2,21.0,21.2,14.8
305.0,39.0,21.1,3.4,20.9,21.1,14.5
305.5,38.9,21.0,3.6,20.9,21.1,14.4
306.0,39.1,21.1,3.7,20.7,21.2,14.5
306.5,39.5,20.8,3.8,20.9,21.3,14.6
307.0,38.3,20.6,3.8,20.5,20.8,14.1
307.5,38.3,20.8,3.9,20.7,20.9,14.1
308.0,38.1,20.8,4.0,20.1,20.8,13.9
308.5,37.8,20.8,4.1,20.2,20.7,13.8
309.0,38.2,20.6,4.1,20.0,20.7,13.9
309.5,37.9,20.1,4.1,19.6,20.4,13.8
310.0,37.0,19.7,4.1,19.9,20.2,13.4
310.5,37.4,19.7,4.0,19.6,20.1,13.7
311.0,37.2,19.6,3.8,19.4,20.0,13.6
311.5,37.5,19.0,3.7,19.7,20.0,13.8
312.0,37.2,18.7,3.7,19.8,19.8,13.7
312.5,37.3,18.2,3.9,19.9,19.8,13.7
313.0,37.2,17.9,4.0,20.0,19.8,13.6
313.5,37.3,17.7,4.1,19.9,19.8,13.6
314.0,36.4,17.2,4.2,20.6,19.6,13.2
314.5,36.9,17.4,4.3,20.5,19.8,13.4
315.0,36.3,16.8,4.4,20.7,19.6,13.2
315.5,36.1,16.2,4.5,20.5,19.3,13.1
316.0,36.3,16.4,4.7,20.9,19.6,13.1
316.5,36.2,16.0,5.0,21.2,19.6,13.0
317.0,36.6,16.0,5.2,21.4,19.8,13.1
317.5,35.7,15.5,5.4,21.9,19.6,12.7
318.0,35.7,15.6,5.5,21.9,19.7,12.6
318.5,35.7,15.5,5.7,22.0,19.7,12.6
319.0,35.6,15.4,5.6,22.4,19.8,12.6
319.5,34.8,15.5,5.8,22.2,19.6,12.2
320.0,35.7,15.2,5.9,22.6,19.8,12.6
320.5,35.4,15.3,6.0,22.4,19.7,12.4
321.0,35.7,15.2,5.9,22.5,19.8,12.6
321.5,35.9,15.0,6.2,22.1,19.8,12.6
322.0,35.4,15.1,6.4,21.9,19.7,12.2
322.5,35.8,15.1,6.7,21.5,19.8,12.3
323.0,36.3,15.1,6.7,21.6,19.9,12.5
323.5,36.2,15.2,6.8,20.5,19.7,12.4
324.0,35.7,14.8,7.0,20.0,19.4,12.1
324.5,35.5,14.7,7.2,19.4,19.2,12.0
325.0,36.4,14.4,7.1,19.2,19.3,12.5
325.5,35.9,14.4,7.2,18.8,19.1,12.2
326.0,36.2,14.1,7.3,18.6,19.0,12.3
326.5,35.9,13.8,7.4,18.1,18.8,12.2
327.0,36.0,13.4,7.3,17.7,18.6,12.4
327.5,35.9,13.3,7.4,17.5,18.5,12.3
328.0,35.9,13.1,7.3,17.1,18.3,12.4
328.5,36.5,13.0,7.1,16.9,18.4,12.7
329.0,36.1,12.7,6.9,16.7,18.1,12.7
329.5,35.5,12.7,6.7,16.5,17.9,12.5
330.0,35.7,12.7,6.6,16.0,17.8,12.6
330.5,35.7,12.6,6.5,15.6,17.6,12.7
331.0,35.4,12.4,6.5,15.5,17.5,12.6
331.5,34.7,12.5,6.4,15.5,17.3,12.2
332.0,35.4,12.4,6.3,15.0,17.3,12.6
332.5,34.6,12.7,6.2,15.3,17.2,12.2
333.0,35.5,12.5,6.2,15.0,17.3,12.7
333.5,35.2,12.7,6.5,14.8,17.3,12.4
334.0,34.3,12.9,6.7,14.5,17.1,11.9
334.5,34.4,13.2,6.9,14.1,17.2,11.9
335.0,33.3,13.2,7.2,14.2,17.0,11.3
335.5,33.1,13.6,7.2,13.7,16.9,11.2
336.0,32.8,13.4,7.4,13.4,16.8,11.1
336.5,32.4,13.4,7.4,13.3,16.6,10.9
337.0,32.3,13.2,7.5,13.0,16.5,10.8
337.5,31.6,13.1,7.6,12.7,16.3,10.5
338.0,31.6,13.0,7.7,12.3,16.1,10.6
338.5,30.6,12.8,7.7,12.2,15.8,10.1
339.0,30.3,12.7,7.8,12.0,15.7,10.0
339.5,29.7,12.7,7.7,11.8,15.5,9.7
340.0,29.5,12.9,7.8,11.6,15.5,9.6
340.5,29.2,12.6,7.7,11.6,15.3,9.5
341.0,29.6,12.9,7.9,11.5,15.5,9.7
341.5,29.2,12.8,7.9,11.5,15.3,9.4
342.0,28.7,12.6,7.8,11.4,15.1,9.3
342.5,28.6,12.7,7.8,11.4,15.1,9.2
343.0,28.5,12.5,7.9,11.3,15.1,9.2
343.5,28.6,12.7,7.6,11.4,15.1,9.3
344.0,28.1,12.8,7.5,11.3,14.9,9.0
344.5,28.2,12.6,7.4,11.2,14.9,9.2
345.0,27.5,12.7,7.1,11.0,14.6,8.9
345.5,27.7,12.6,6.9,10.7,14.5,9.1
346.0,27.7,12.7,6.9,10.6,14.5,9.2
346.5,27.7,12.7,6.9,10.4,14.4,9.2
347.0,27.7,12.8,6.8,10.3,14.4,9.2
347.5,27.6,12.5,6.7,10.2,14.3,9.2
348.0,27.9,12.6,6.7,10.2,14.3,9.3
348.5,27.5,12.5,6.6,10.0,14.2,9.2
349.0,27.6,12.5,6.4,10.2,14.2,9.3
349.5,27.6,12.6,6.3,10.0,14.1,9.4
350.0,27.8,12.6,6.1,9.8,14.1,9.5
350.5,28.0,12.6,5.9,9.6,14.0,9.7
351.0,28.1,12.6,5.7,9.2,13.9,9.9
351.5,28.3,12.6,5.6,9.1,13.9,10.0
352.0,29.1,12.7,5.5,8.9,14.1,10.5
352.5,29.9,12.7,5.5,8.9,14.2,10.8
353.0,29.7,12.5,5.3,8.7,14.1,10.8
353.5,30.5,12.7,5.3,8.4,14.2,11.2
354.0,31.0,12.5,5.3,8.4,14.3,11.6
354.5,31.4,12.6,5.2,8.2,14.4,11.8
355.0,31.6,12.8,5.2,8.0,14.4,11.9
355.5,32.3,12.6,5.1,8.1,14.5,12.3
356.0,32.9,12.7,5.1,8.1,14.7,12.5
356.5,32.8,12.7,5.2,8.1,14.7,12.4
357.0,33.6,12.7,5.1,8.1,14.9,12.9
357.5,34.1,12.7,5.1,8.1,15.0,13.1
358.0,34.2,12.7,5.1,8.1,15.0,13.1
358.5,34.0,12.7,5.1,8.1,15.0,13.1
359.0,34.4,12.7,5.1,8.0,15.0,13.2
359.5,33.8,12.4,5.2,8.1,14.9,13.0
360.0,34.2,12.2,5.1,8.2,14.9,13.2
360.5,33.3,12.1,5.1,8.1,14.7,12.7
361.0,33.0,11.8,5.1,8.2,14.5,12.6
361.5,32.6,11.7,5.0,8.2,14.4,12.5
362.0,32.6,11.3,5.1,8.1,14.3,12.5
362.5,32.4,11.0,4.9,8.0,14.1,12.5
363.0,32.4,10.9,5.1,8.2,14.2,12.4
363.5,32.1,10.5,5.1,8.1,13.9,12.3
364.0,32.6,10.6,5.1,8.1,14.1,12.5
364.5,31.2,10.4,5.1,8.1,13.7,11.9
365.0,31.5,10.5,5.1,8.1,13.8,12.0
365.5,30.5,10.3,5.1,8.1,13.5,11.5
366.0,29.8,10.3,5.0,8.1,13.3,11.2
366.5,29.4,10.0,5.2,8.0,13.1,11.0
367.0,29.6,10.1,5.1,8.2,13.2,11.1
367.5,29.0,10.1,5.1,8.2,13.1,10.8
368.0,28.8,9.9,4.6,8.1,12.8,10.9
368.5,28.3,10.1,4.1,8.1,12.7,10.7
369.0,28.3,9.9,3.8,8.1,12.5,10.8
369.5,27.3,10.0,3.5,8.0,12.2,10.4
370.0,27.5,10.0,3.3,7.8,12.1,10.6
370.5,27.3,9.9,3.1,7.6,12.0,10.6
371.0,26.8,10.0,3.0,7.4,11.8,10.4
371.5,26.6,9.9,2.9,7.3,11.6,10.4
372.0,26.5,9.9,2.7,7.2,11.6,10.4
372.5,26.1,9.9,2.6,7.1,11.4,10.2
373.0,26.0,9.9,2.6,6.9,11.4,10.2
373.5,26.2,9.8,2.5,6.6,11.3,10.4
374.0,25.6,9.9,2.5,6.4,11.1,10.1
374.5,25.8,10.0,2.4,6.2,11.1,10.3
375.0,25.6,9.9,2.4,6.1,11.0,10.2
375.5,25.3,9.8,2.4,6.0,10.9,10.1
376.0,25.3,9.9,2.4,5.7,10.8,10.1
376.5,25.2,9.7,2.3,5.2,10.6,10.2
377.0,24.7,9.8,2.4,4.9,10.5,10.0
377.5,24.1,9.9,2.5,4.6,10.3,9.7
378.0,24.2,10.1,2.5,4.5,10.3,9.8
378.5,23.6,10.2,2.6,4.5,10.2,9.5
379.0,23.5,10.3,2.6,4.4,10.2,9.4
379.5,23.4,10.5,2.7,4.5,10.3,9.4
380.0,23.1,10.6,2.6,4.5,10.2,9.3
380.5,23.5,10.7,2.6,4.5,10.3,9.4
381.0,23.2,10.4,2.5,4.5,10.1,9.3
381.5,23.0,10.5,2.5,4.5,10.1,9.2
382.0,23.1,10.4,2.5,4.5,10.1,9.3
382.5,22.5,10.6,2.4,4.6,10.0,9.0
383.0,23.0,10.6,2.4,4.5,10.1,9.3
383.5,23.0,10.6,2.4,4.5,10.1,9.3
384.0,22.7,10.6,2.4,4.4,10.0,9.2
384.5,22.9,10.8,2.4,4.5,10.1,9.2
385.0,22.4,10.7,2.4,4.8,10.1,9.0
385.5,23.0,10.7,2.3,4.9,10.2,9.2
386.0,22.7,10.8,2.3,5.2,10.2,9.0
386.5,22.6,10.8,2.4,5.2,10.3,9.0
387.0,22.8,10.7,2.3,5.5,10.3,9.0
387.5,22.4,10.7,2.3,5.6,10.3,8.8
388.0,22.4,10.9,2.3,5.8,10.3,8.8
388.5,22.6,10.6,2.3,6.0,10.4,8.8
389.0,22.5,10.8,2.3,6.0,10.4,8.8
389.5,22.2,10.8,2.3,6.1,10.4,8.6
390.0,21.9,10.7,2.2,6.2,10.3,8.5
390.5,21.9,10.9,1.9,6.3,10.3,8.6
391.0,21.7,10.8,1.7,6.3,10.1,8.5
391.5,21.7,11.0,1.6,6.3,10.1,8.6
392.0,21.4,10.6,1.5,6.3,10.0,8.5
392.5,21.1,10.7,1.4,6.3,9.9,8.4
393.0,21.0,10.7,1.3,6.3,9.8,8.4
393.5,20.8,10.6,1.2,6.4,9.8,8.3
394.0,20.5,10.8,1.2,6.4,9.7,8.2
394.5,20.5,10.7,1.1,6.3,9.7,8.2
395.0,20.5,10.8,1.1,6.4,9.7,8.2
395.5,20.7,10.4,1.0,6.4,9.6,8.3
396.0,20.6,10.2,1.0,6.4,9.5,8.3
396.5,20.3,10.0,1.0,6.4,9.4,8.1
397.0,20.1,9.8,1.0,6.3,9.3,8.1
397.5,20.0,9.8,1.0,6.4,9.3,8.0
398.0,20.0,9.8,1.0,6.4,9.3,8.0
398.5,20.0,9.6,1.0,6.2,9.2,8.0
399.0,19.8,9.6,0.9,6.4,9.2,7.9
399.5,19.0,9.7,0.9,6.5,9.0,7.6
400.0,18.7,9.7,0.9,6.7,9.0,7.4
400.5,18.3,10.1,1.0,6.8,9.0,7.2
401.0,18.3,10.1,0.9,6.8,9.0,7.2
401.5,17.9,10.2,0.9,7.2,9.1,7.1
402.0,17.5,10.4,0.9,7.5,9.1,6.9
402.5,17.2,10.6,1.0,7.6,9.1,6.8
403.0,17.1,10.7,1.0,7.9,9.2,6.7
403.5,17.1,11.1,1.1,8.3,9.4,6.7
404.0,16.6,11.5,1.1,8.6,9.4,6.5
404.5,16.5,11.7,1.2,8.9,9.6,6.4
405.0,16.5,11.9,1.2,9.0,9.6,6.4
405.5,16.4,12.0,0.9,9.7,9.7,6.5
406.0,16.3,12.2,0.7,10.0,9.8,6.6
406.5,16.4,12.1,0.6,10.2,9.8,6.7
407.0,16.1,12.4,0.5,10.2,9.8,6.7
407.5,15.9,12.5,0.4,10.6,9.8,6.7
408.0,16.0,12.6,0.3,10.8,9.9,6.8
408.5,16.3,12.6,0.3,11.0,10.1,6.8
409.0,16.3,12.7,0.5,11.4,10.2,6.8
409.5,16.3,12.6,0.7,11.9,10.4,6.8
410.0,16.3,12.8,0.8,12.1,10.5,6.7
410.5,16.3,12.7,0.9,12.2,10.5,6.7
411.0,16.7,12.7,1.0,12.5,10.7,6.8
411.5,16.7,12.8,1.3,12.7,10.9,6.7
412.0,17.3,12.8,1.5,13.0,11.2,6.7
412.5,17.0,12.7,1.8,13.6,11.3,6.6
413.0,17.2,12.8,1.9,13.6,11.4,6.6
413.5,17.2,12.7,2.4,14.0,11.6,6.4
414.0,17.5,12.8,2.7,14.1,11.8,6.4
414.5,17.3,12.8,2.9,14.0,11.7,6.2
415.0,17.6,12.7,3.1,14.4,12.0,6.2
415.5,17.5,12.8,3.4,14.4,12.0,6.1
416.0,17.7,12.9,3.5,14.4,12.1,6.1
416.5,17.3,12.8,3.4,14.4,11.9,6.0
417.0,17.5,12.8,3.2,14.6,12.0,6.2
417.5,17.5,12.7,3.1,14.6,12.0,6.2
418.0,17.5,12.7,3.0,14.6,11.9,6.3
418.5,17.4,12.8,3.0,14.6,11.9,6.3
419.0,17.5,12.6,2.9,14.4,11.9,6.3
419.5,17.5,12.8,2.8,14.3,11.9,6.3
420.0,17.4,12.7,2.7,14.3,11.8,6.4
420.5,17.2,12.8,2.6,14.4,11.8,6.4
421.0,17.3,12.8,2.5,14.6,11.8,6.4
421.5,17.1,12.5,2.5,14.8,11.7,6.4
422.0,16.7,13.1,2.5,15.2,11.9,6.4
422.5,16.4,12.8,2.7,15.7,11.9,6.3
423.0,16.2,12.9,2.9,15.8,12.0,6.2
423.5,16.1,12.8,3.0,16.0,12.0,6.2
424.0,15.8,13.0,3.2,16.4,12.1,6.1
424.5,15.7,12.6,3.2,16.9,12.1,6.2
425.0,15.6,12.5,3.4,17.0,12.1,6.1
425.5,15.6,12.5,3.7,17.1,12.2,6.0
426.0,15.7,12.5,4.0,17.6,12.5,6.0
426.5,15.4,12.4,4.2,17.8,12.5,5.9
427.0,15.5,12.4,4.5,18.2,12.6,5.9
427.5,15.4,12.4,4.7,18.6,12.8,5.9
428.0,15.1,12.4,4.8,18.7,12.8,5.9
428.5,14.9,12.5,4.7,18.8,12.7,6.0
429.0,15.0,12.3,4.5,19.3,12.8,6.2
429.5,14.8,12.4,4.5,19.6,12.8,6.3
430.0,14.9,12.4,4.5,19.9,12.9,6.4
430.5,15.1,12.4,4.6,20.4,13.1,6.6
431.0,14.9,12.3,4.6,20.8,13.1,6.7
431.5,15.1,12.3,4.6,20.7,13.2,6.7
432.0,14.7,12.4,4.5,21.2,13.2,6.9
432.5,14.8,12.2,4.6,21.4,13.2,7.0
433.0,14.7,12.3,4.6,21.9,13.4,7.1
433.5,14.8,12.5,4.6,22.2,13.5,7.3
434.0,14.7,12.4,4.6,22.2,13.5,7.3
434.5,14.2,12.3,4.6,23.0,13.5,7.5
435.0,13.9,12.4,4.7,22.9,13.5,7.5
435.5,13.6,12.3,4.9,23.1,13.5,7.5
436.0,13.4,12.6,5.1,23.5,13.6,7.5
436.5,13.4,12.5,5.3,23.8,13.7,7.6
437.0,13.2,12.3,5.4,24.0,13.7,7.7
437.5,12.9,12.3,5.5,23.9,13.7,7.6
438.0,12.7,12.2,5.6,24.3,13.7,7.8
438.5,12.7,12.3,5.7,24.3,13.7,7.7
439.0,12.6,12.4,5.7,24.6,13.8,7.9
439.5,12.5,12.5,5.8,25.1,14.0,8.1
440.0,12.5,12.3,5.7,24.8,13.9,8.0
440.5,12.6,12.3,5.9,25.2,14.0,8.1
441.0,12.5,12.3,5.8,24.8,13.9,7.9
441.5,12.7,12.3,5.9,25.2,14.0,8.1
442.0,12.7,12.3,5.9,24.9,14.0,7.9
442.5,12.8,12.2,5.9,25.2,14.0,8.1
443.0,12.6,12.2,5.9,24.9,13.9,7.9
443.5,12.6,12.3,5.8,25.0,13.9,8.0
444.0,12.8,12.3,5.9,25.3,14.1,8.1
444.5,12.6,12.5,5.9,25.0,14.0,8.0
445.0,12.7,12.3,6.1,25.0,14.0,7.9
445.5,12.7,12.3,6.4,24.9,14.1,7.8
446.0,12.6,12.2,6.6,25.1,14.1,7.8
446.5,12.9,12.2,6.6,25.4,14.3,7.9
447.0,12.8,12.4,6.8,25.9,14.5,8.1
447.5,12.7,12.1,6.9,26.0,14.4,8.1
448.0,12.8,12.3,6.9,26.1,14.5,8.2
448.5,12.7,12.1,7.1,26.8,14.7,8.5
449.0,12.6,12.0,7.0,26.8,14.6,8.5
449.5,12.6,11.8,6.8,27.3,14.6,8.8
450.0,12.8,11.7,6.6,27.5,14.7,9.0
450.5,12.6,11.6,6.6,28.2,14.8,9.3
451.0,12.6,11.6,6.5,28.5,14.8,9.5
451.5,12.6,11.5,6.3,28.8,14.8,9.7
452.0,12.6,11.4,6.3,28.8,14.8,9.7
452.5,12.7,11.4,6.3,29.7,15.0,10.2
453.0,12.6,11.4,6.3,30.2,15.1,10.4
453.5,12.7,11.2,6.1,30.6,15.2,10.7
454.0,12.8,11.3,6.1,30.9,15.3,10.8
454.5,12.6,11.4,6.1,31.3,15.3,11.0
455.0,12.7,11.4,6.3,31.4,15.4,11.0
455.5,12.5,11.4,6.4,31.9,15.5,11.2
456.0,12.5,11.3,6.7,32.9,15.8,11.7
456.5,12.9,11.2,6.9,32.8,15.9,11.5
457.0,12.8,11.3,7.0,33.4,16.1,11.8
457.5,12.8,11.6,7.0,33.8,16.3,11.9
458.0,12.7,11.8,7.1,33.7,16.3,11.8
458.5,12.6,12.1,6.8,34.1,16.4,12.1
459.0,12.6,11.8,6.7,34.4,16.4,12.3
459.5,12.8,12.1,6.6,34.8,16.6,12.5
460.0,13.2,12.3,6.6,35.3,16.8,12.6
460.5,13.3,12.6,6.4,35.1,16.8,12.6
461.0,13.3,12.5,6.4,35.5,16.9,12.7
461.5,13.3,12.6,6.2,36.2,17.1,13.1
462.0,13.6,12.7,6.3,35.2,16.9,12.6
462.5,13.7,12.4,6.0,35.6,16.9,12.9
463.0,13.7,12.5,6.2,36.0,17.1,13.0
463.5,13.8,12.6,6.3,36.0,17.2,13.0
464.0,13.5,12.7,6.5,36.2,17.2,13.0
464.5,13.6,12.6,6.9,36.1,17.3,12.9
465.0,13.1,12.5,7.3,36.5,17.4,13.1
465.5,12.8,12.4,7.7,36.0,17.2,12.7
465.75,12.6,12.5,7.8,36.1,17.3,12.8