File: 01_Data/Wool_Rug/Cone/Wool_Rug_HRRPUA_75.csv
Time after Ignition,Wool_Rug_R1,Wool_Rug_R2,Wool_Rug_R3,Mean,Std. Dev.
0.0,50.3,94.5,45.3,63.4,27.1
0.25,58.6,104.4,60.3,74.4,26.0
0.5,65.5,109.0,74.4,83.0,23.0
0.75,71.8,131.1,83.4,95.5,31.4
1.0,91.8,148.3,95.7,111.9,31.6
1.25,105.4,161.5,105.9,124.3,32.2
1.5,116.3,185.3,112.4,138.0,41.0
1.75,129.6,204.3,131.7,155.2,42.5
2.0,152.0,217.8,148.6,172.8,39.0
2.25,177.7,241.2,165.3,194.7,40.7
2.5,187.4,250.6,176.9,205.0,39.9
2.75,209.0,272.7,187.0,222.9,44.5
3.0,231.8,289.9,209.0,243.6,41.7
3.25,250.1,310.0,230.4,263.5,41.5
3.5,272.5,321.3,246.8,280.2,37.9
3.75,284.9,346.4,256.0,295.8,46.2
4.0,303.8,354.0,279.5,312.5,38.0
4.25,326.5,357.5,300.0,328.0,28.8
4.5,331.7,366.2,310.7,336.2,28.0
4.75,352.7,386.1,324.8,354.5,30.7
5.0,358.3,392.7,340.3,363.7,26.6
5.25,364.4,398.6,356.8,373.3,22.3
5.5,373.4,415.0,354.3,380.9,31.0
5.75,389.8,406.1,369.7,388.6,18.2
6.0,391.5,417.4,390.6,399.8,15.2
6.25,400.2,445.0,391.2,412.1,28.8
6.5,408.5,437.9,394.4,413.6,22.2
6.75,404.3,433.1,416.1,417.8,14.5
7.0,420.1,440.9,408.5,423.2,16.4
7.25,429.6,448.3,412.2,430.0,18.0
7.5,421.8,454.6,416.1,430.8,20.8
7.75,427.6,448.9,425.7,434.1,12.9
8.0,440.4,461.1,432.3,444.6,14.8
8.25,446.2,447.4,431.0,441.5,9.2
8.5,438.9,449.7,433.4,440.7,8.3
8.75,443.6,456.8,423.4,441.3,16.8
9.0,444.7,456.3,429.1,443.4,13.6
9.25,439.1,456.2,433.4,442.9,11.9
9.5,435.8,448.5,439.1,441.1,6.6
9.75,449.2,447.2,433.6,443.4,8.5
10.0,441.2,442.4,438.8,440.8,1.8
10.25,435.1,443.1,435.0,437.7,4.7
10.5,439.5,451.3,428.5,439.8,11.4
10.75,429.3,435.6,436.0,433.6,3.8
11.0,432.3,439.9,429.6,434.0,5.3
11.25,426.1,450.8,430.6,435.8,13.2
11.5,437.1,434.3,426.6,432.7,5.5
11.75,429.7,442.1,435.3,435.7,6.2
12.0,427.6,429.5,426.2,427.8,1.7
12.25,416.8,425.1,413.3,418.4,6.0
12.5,416.0,426.4,413.1,418.5,7.0
12.75,418.4,430.8,413.9,421.1,8.8
13.0,421.0,425.5,414.4,420.3,5.6
13.25,421.4,421.1,402.1,414.9,11.1
13.5,412.7,424.7,409.4,415.6,8.0
13.75,411.9,418.7,409.2,413.3,4.9
14.0,410.2,416.9,408.6,411.9,4.4
14.25,411.9,418.8,401.1,410.6,8.9
14.5,410.9,410.7,389.4,403.7,12.3
14.75,403.1,405.5,392.3,400.3,7.0
15.0,400.5,418.8,392.1,403.8,13.6
15.25,408.0,396.6,386.1,396.9,11.0
15.5,391.2,402.1,391.4,394.9,6.2
15.75,396.2,401.7,385.4,394.4,8.3
16.0,392.6,392.8,379.9,388.4,7.4
16.25,392.5,393.9,382.4,389.6,6.2
16.5,393.8,387.5,374.9,385.4,9.6
16.75,377.5,379.2,372.2,376.3,3.6
17.0,386.6,382.8,372.0,380.5,7.6
17.25,381.4,373.3,374.9,376.5,4.3
17.5,376.3,374.4,372.8,374.5,1.8
17.75,377.1,370.5,371.7,373.1,3.5
18.0,382.0,371.1,365.9,373.0,8.2
18.25,378.2,367.5,367.0,370.9,6.3
18.5,369.2,372.2,358.8,366.7,7.0
18.75,367.5,365.3,363.7,365.5,1.9
19.0,367.4,363.2,359.2,363.3,4.1
19.25,364.5,363.4,361.8,363.2,1.4
19.5,360.4,359.5,350.2,356.7,5.6
19.75,364.3,348.0,348.2,353.5,9.3
20.0,356.9,351.6,341.8,350.1,7.7
20.25,362.0,357.3,346.3,355.2,8.1
20.5,350.1,353.9,341.3,348.4,6.5
20.75,353.9,350.7,336.1,346.9,9.5
21.0,353.1,342.8,335.6,343.9,8.8
21.25,345.0,340.3,330.3,338.5,7.5
21.5,348.6,349.0,344.1,347.2,2.7
21.75,360.0,343.5,339.3,347.6,11.0
22.0,344.0,340.8,334.5,339.8,4.8
22.25,344.3,339.6,334.9,339.6,4.7
22.5,347.4,339.7,329.7,338.9,8.9
22.75,347.8,340.1,328.4,338.7,9.7
23.0,340.7,339.6,325.4,335.2,8.5
23.25,349.5,328.4,326.4,334.8,12.8
23.5,340.5,330.3,322.8,331.2,8.9
23.75,335.4,333.9,325.0,331.4,5.6
24.0,336.9,327.6,326.3,330.3,5.7
24.25,328.8,329.0,322.6,326.8,3.6
24.5,325.8,321.3,323.8,323.7,2.2
24.75,330.2,326.0,327.7,328.0,2.1
25.0,317.9,316.7,317.2,317.3,0.6
25.25,329.5,319.2,310.8,319.8,9.3
25.5,322.4,312.3,317.6,317.5,5.1
25.75,325.4,311.1,312.7,316.4,7.8
26.0,324.2,313.4,316.2,317.9,5.6
26.25,316.1,317.8,313.8,315.9,2.0
26.5,311.0,311.6,314.5,312.4,1.9
26.75,301.9,309.1,313.9,308.3,6.1
27.0,307.1,310.0,304.1,307.1,3.0
27.25,300.3,304.3,297.8,300.8,3.3
27.5,300.6,311.3,303.7,305.2,5.5
27.75,302.6,300.1,303.6,302.1,1.8
28.0,297.4,308.0,304.3,303.3,5.4
28.25,295.9,308.5,300.3,301.6,6.4
28.5,305.6,304.1,295.7,301.8,5.3
28.75,297.5,304.1,291.8,297.8,6.2
29.0,290.9,298.9,296.6,295.5,4.1
29.25,292.6,304.8,296.5,298.0,6.3
29.5,291.8,302.2,293.8,295.9,5.5
29.75,285.4,302.3,289.4,292.4,8.8
30.0,287.0,293.7,298.7,293.1,5.9
30.25,286.7,293.8,289.6,290.0,3.6
30.5,288.6,295.3,291.3,291.7,3.4
30.75,281.6,301.3,288.0,290.3,10.0
31.0,289.4,294.4,278.7,287.5,8.0
31.25,287.1,293.0,278.7,286.3,7.2
31.5,281.1,292.9,278.2,284.1,7.8
31.75,279.1,294.3,275.8,283.1,9.9
32.0,281.1,288.7,280.0,283.3,4.7
32.25,279.1,289.7,281.8,283.5,5.5
32.5,272.4,287.2,278.3,279.3,7.5
32.75,270.1,290.3,276.5,278.9,10.3
33.0,274.4,287.6,277.8,279.9,6.9
33.25,273.7,276.5,276.4,275.5,1.6
33.5,272.5,278.8,273.6,275.0,3.4
33.75,266.5,278.5,271.7,272.2,6.0
34.0,267.8,278.0,272.4,272.7,5.1
34.25,265.9,271.9,270.7,269.5,3.2
34.5,269.0,278.3,271.7,273.0,4.8
34.75,263.6,273.8,266.6,268.0,5.3
35.0,262.1,274.9,263.1,266.7,7.1
35.25,265.2,274.5,264.5,268.1,5.6
35.5,261.1,276.8,265.0,267.6,8.2
35.75,265.8,275.1,259.2,266.7,8.0
36.0,251.8,269.9,264.9,262.2,9.3
36.25,258.4,267.9,260.6,262.3,5.0
36.5,256.9,268.0,258.4,261.1,6.0
36.75,259.8,266.3,261.6,262.5,3.4
37.0,255.6,265.8,257.8,259.7,5.4
37.25,254.9,268.0,257.3,260.0,7.0
37.5,255.9,262.2,256.1,258.1,3.6
37.75,255.2,257.5,251.7,254.8,2.9
38.0,254.7,260.7,251.3,255.6,4.8
38.25,253.4,255.6,254.2,254.4,1.1
38.5,250.9,256.1,251.4,252.8,2.9
38.75,248.8,259.8,255.0,254.6,5.5
39.0,250.4,253.8,247.8,250.7,3.0
39.25,246.6,255.4,248.6,250.2,4.6
39.5,251.3,250.2,245.8,249.1,2.9
39.75,246.5,254.6,244.4,248.5,5.4
40.0,248.8,252.9,244.6,248.8,4.2
40.25,247.5,248.5,241.6,245.9,3.7
40.5,242.6,248.2,239.0,243.3,4.7
40.75,240.5,247.2,242.0,243.2,3.5
41.0,248.3,244.5,237.3,243.4,5.6
41.25,242.8,247.9,239.6,243.4,4.2
41.5,237.1,244.3,238.1,239.9,3.9
41.75,240.0,243.0,237.7,240.2,2.6
42.0,239.3,240.9,236.3,238.9,2.3
42.25,237.0,245.8,237.0,239.9,5.1
42.5,238.6,241.6,233.5,237.9,4.1
42.75,241.5,237.8,232.6,237.3,4.5
43.0,239.4,238.5,232.9,236.9,3.5
43.25,236.9,242.2,232.4,237.2,4.9
43.5,237.6,237.7,232.3,235.9,3.1
43.75,239.7,234.7,233.6,236.0,3.3
44.0,239.3,240.0,232.5,237.3,4.1
44.25,239.3,236.0,228.3,234.5,5.7
44.5,236.1,236.2,231.5,234.6,2.7
44.75,239.1,232.0,232.0,234.4,4.1
45.0,238.8,229.4,229.2,232.5,5.5
45.25,232.9,235.7,229.7,232.8,3.0
45.5,235.9,232.7,226.0,231.5,5.1
45.75,238.0,227.7,229.8,231.8,5.4
46.0,232.0,236.1,228.2,232.1,4.0
46.25,232.7,229.3,226.3,229.4,3.2
46.5,237.1,229.2,227.1,231.1,5.3
46.75,237.0,231.0,233.1,233.7,3.1
47.0,234.8,227.8,222.3,228.3,6.3
47.25,231.8,229.1,224.0,228.3,4.0
47.5,236.6,227.3,222.2,228.7,7.3
47.75,231.2,222.9,227.4,227.2,4.1
48.0,230.5,229.8,222.6,227.6,4.3
48.25,231.7,224.5,224.4,226.9,4.2
48.5,230.6,224.5,223.1,226.1,4.0
48.75,230.3,226.6,222.2,226.4,4.0
49.0,225.3,221.5,223.2,223.3,1.9
49.25,229.9,222.8,218.8,223.8,5.6
49.5,231.9,220.6,222.0,224.9,6.2
49.75,229.8,226.8,224.6,227.1,2.6
50.0,231.7,225.3,222.9,226.6,4.5
50.25,230.0,224.1,216.5,223.6,6.8
50.5,225.5,221.3,220.4,222.4,2.7
50.75,226.8,219.3,215.8,220.7,5.6
51.0,230.0,220.4,218.1,222.8,6.3
51.25,227.7,219.5,219.0,222.1,4.9
51.5,226.9,219.7,215.3,220.6,5.9
51.75,225.1,217.8,216.9,219.9,4.5
52.0,224.8,214.3,214.8,217.9,5.9
52.25,221.0,217.6,215.7,218.1,2.7
52.5,221.3,217.0,215.3,217.9,3.1
52.75,226.1,217.3,218.8,220.8,4.7
53.0,224.8,214.8,212.7,217.4,6.5
53.25,220.0,214.1,216.1,216.7,3.0
53.5,225.7,215.8,214.8,218.8,6.0
53.75,222.1,213.4,213.1,216.2,5.1
54.0,218.6,215.6,215.8,216.7,1.7
54.25,222.3,212.8,219.0,218.0,4.8
54.5,222.3,213.4,208.4,214.7,7.0
54.75,222.2,211.2,211.3,214.9,6.3
55.0,219.8,213.0,211.2,214.7,4.5
55.25,220.7,210.3,214.3,215.1,5.2
55.5,220.6,212.5,211.0,214.7,5.2
55.75,217.7,211.7,211.1,213.5,3.7
56.0,218.9,214.3,211.8,215.0,3.6
56.25,219.7,210.3,209.6,213.2,5.7
56.5,219.0,210.7,212.0,213.9,4.5
56.75,217.8,209.6,207.8,211.7,5.3
57.0,219.1,211.5,210.2,213.6,4.8
57.25,217.1,209.8,208.5,211.8,4.6
57.5,216.4,209.0,206.4,210.6,5.2
57.75,214.2,209.6,206.3,210.0,4.0
58.0,216.7,212.6,209.7,213.0,3.5
58.25,216.0,210.1,211.6,212.6,3.1
58.5,212.6,211.1,206.3,210.0,3.3
58.75,211.2,211.1,206.1,209.5,2.9
59.0,214.0,208.5,205.9,209.5,4.1
59.25,212.9,209.1,202.0,208.0,5.5
59.5,218.2,207.7,205.0,210.3,7.0
59.75,214.3,204.5,202.1,207.0,6.5
60.0,210.5,208.2,204.6,207.7,3.0
60.25,214.0,208.5,202.4,208.3,5.8
60.5,210.5,209.6,203.4,207.9,3.9
60.75,211.0,209.9,207.4,209.5,1.8
61.0,213.5,205.4,202.9,207.3,5.5
61.25,209.0,207.0,204.8,206.9,2.1
61.5,213.6,210.3,201.1,208.3,6.5
61.75,208.2,206.3,201.5,205.3,3.5
62.0,212.1,208.6,205.8,208.8,3.1
62.25,211.9,208.3,200.6,206.9,5.8
62.5,209.2,207.2,201.9,206.1,3.8
62.75,208.2,208.1,198.4,204.9,5.6
63.0,210.3,209.0,202.5,207.3,4.2
63.25,206.0,204.4,194.3,201.6,6.4
63.5,208.2,208.2,198.2,204.8,5.8
63.75,208.5,205.8,198.6,204.3,5.1
64.0,207.1,209.3,198.2,204.9,5.9
64.25,212.0,202.6,201.4,205.3,5.8
64.5,209.6,206.7,199.1,205.2,5.4
64.75,206.7,204.5,198.5,203.2,4.3
65.0,207.2,204.4,199.3,203.6,4.0
65.25,206.7,203.0,198.9,202.9,3.9
65.5,205.9,202.5,199.3,202.6,3.3
65.75,206.0,201.4,200.0,202.5,3.2
66.0,206.8,203.5,195.5,201.9,5.8
66.25,204.7,203.3,196.4,201.5,4.4
66.5,206.7,203.2,197.0,202.3,4.9
66.75,203.2,200.0,200.5,201.3,1.7
67.0,204.7,205.1,198.7,202.9,3.6
67.25,200.9,201.6,196.2,199.6,2.9
67.5,206.5,200.4,195.4,200.8,5.6
67.75,205.1,202.1,198.9,202.1,3.1
68.0,203.6,202.6,196.8,201.0,3.6
68.25,207.7,202.1,192.1,200.6,7.9
68.5,204.6,196.5,197.5,199.5,4.4
68.75,206.2,198.7,198.7,201.2,4.3
69.0,198.5,199.3,193.3,197.0,3.3
69.25,202.5,198.1,193.3,198.0,4.6
69.5,202.7,197.4,196.3,198.8,3.4
69.75,205.9,194.3,196.6,198.9,6.2
70.0,202.0,194.9,196.5,197.8,3.7
70.25,201.3,197.7,192.8,197.3,4.2
70.5,200.5,199.9,195.1,198.5,2.9
70.75,201.6,195.9,196.3,197.9,3.1
71.0,200.3,196.8,193.6,196.9,3.4
71.25,203.6,197.0,193.7,198.1,5.0
71.5,202.1,193.9,193.6,196.5,4.8
71.75,198.0,194.0,190.4,194.1,3.8
72.0,194.9,192.8,192.5,193.4,1.3
72.25,197.8,198.0,191.3,195.7,3.8
72.5,201.1,193.4,189.9,194.8,5.7
72.75,197.8,194.2,190.2,194.1,3.8
73.0,197.2,192.4,191.6,193.7,3.0
73.25,197.9,193.3,191.8,194.3,3.2
73.5,198.0,194.4,193.1,195.1,2.5
73.75,195.3,189.6,191.2,192.1,2.9
74.0,199.1,190.8,189.8,193.2,5.1
74.25,196.9,192.4,189.4,192.9,3.8
74.5,192.1,193.3,189.1,191.5,2.2
74.75,197.2,190.2,190.2,192.5,4.0
75.0,198.1,189.2,190.2,192.5,4.9
75.25,195.6,189.9,188.9,191.5,3.6
75.5,193.5,190.0,192.1,191.9,1.8
75.75,192.5,189.8,189.1,190.5,1.8
76.0,192.5,190.7,184.5,189.3,4.2
76.25,193.6,190.3,188.9,191.0,2.4
76.5,193.1,192.1,188.8,191.3,2.2
76.75,198.1,189.7,187.8,191.8,5.5
77.0,194.1,188.7,185.6,189.4,4.3
77.25,190.7,186.1,188.5,188.4,2.3
77.5,192.5,189.3,187.0,189.6,2.7
77.75,191.3,187.5,187.6,188.8,2.2
78.0,191.0,187.0,187.6,188.5,2.1
78.25,189.0,188.8,185.9,187.9,1.7
78.5,190.7,187.0,183.5,187.0,3.6
78.75,189.7,186.4,184.0,186.7,2.9
79.0,190.6,186.4,187.8,188.3,2.1
79.25,190.1,186.9,181.6,186.2,4.3
79.5,188.6,186.5,184.1,186.4,2.3
79.75,189.5,185.8,185.4,186.9,2.3
80.0,187.1,188.1,184.1,186.4,2.1
80.25,187.0,185.8,184.5,185.7,1.2
80.5,189.4,184.8,184.0,186.1,2.9
80.75,187.1,182.8,187.1,185.6,2.5
81.0,184.1,182.8,180.9,182.6,1.6
81.25,185.7,183.7,183.3,184.2,1.3
81.5,184.9,183.4,182.7,183.7,1.1
81.75,186.4,184.1,181.2,183.9,2.6
82.0,182.3,185.9,182.4,183.5,2.1
82.25,182.4,187.7,180.5,183.5,3.7
82.5,182.4,184.0,180.8,182.4,1.6
82.75,185.2,184.2,186.0,185.2,0.9
83.0,181.9,186.3,184.2,184.1,2.2
83.25,183.3,183.6,178.8,181.9,2.7
83.5,182.8,178.7,181.5,181.0,2.1
83.75,184.5,183.0,180.9,182.8,1.8
84.0,184.1,181.8,181.6,182.5,1.3
84.25,185.4,181.3,179.6,182.1,3.0
84.5,177.1,178.9,181.4,179.1,2.2
84.75,181.6,181.5,180.0,181.0,0.9
85.0,182.6,183.0,180.0,181.8,1.6
85.25,182.4,180.3,177.9,180.2,2.3
85.5,180.6,184.7,178.0,181.1,3.4
85.75,179.8,182.0,179.9,180.6,1.3
86.0,182.7,180.6,179.0,180.8,1.8
86.25,181.3,182.8,178.0,180.7,2.5
86.5,180.8,179.1,178.7,179.5,1.1
86.75,179.9,182.5,175.7,179.3,3.5
87.0,178.4,178.6,175.8,177.6,1.6
87.25,176.7,177.6,175.0,176.4,1.3
87.5,178.5,182.7,178.5,179.9,2.5
87.75,179.0,178.2,181.0,179.4,1.4
88.0,178.4,181.7,178.9,179.7,1.8
88.25,175.1,178.5,177.2,176.9,1.7
88.5,175.2,178.5,176.4,176.7,1.7
88.75,175.2,178.2,178.7,177.4,1.9
89.0,174.4,178.8,177.3,176.8,2.3
89.25,176.1,181.1,176.8,178.0,2.7
89.5,173.1,177.4,172.4,174.3,2.7
89.75,171.6,178.8,178.2,176.2,4.0
90.0,176.6,180.1,175.1,177.3,2.6
90.25,174.2,178.9,174.7,175.9,2.6
90.5,170.3,178.8,172.9,174.0,4.4
90.75,172.3,178.0,172.7,174.3,3.2
91.0,174.7,175.2,175.5,175.1,0.4
91.25,174.5,176.7,172.9,174.7,1.9
91.5,171.0,175.9,174.3,173.7,2.5
91.75,171.3,179.7,173.0,174.7,4.4
92.0,169.7,176.2,172.4,172.8,3.2
92.25,176.3,176.1,173.9,175.4,1.3
92.5,172.7,175.4,172.0,173.4,1.8
92.75,172.1,176.0,172.7,173.6,2.1
93.0,172.7,175.6,172.1,173.5,1.9
93.25,172.4,176.5,169.8,172.9,3.4
93.5,172.8,173.7,171.9,172.8,0.9
93.75,172.1,172.7,172.2,172.4,0.3
94.0,172.4,172.4,172.2,172.4,0.1
94.25,168.1,172.8,170.4,170.4,2.3
94.5,171.0,175.5,171.2,172.6,2.5
94.75,170.8,173.3,170.3,171.5,1.6
95.0,171.4,172.8,172.8,172.3,0.8
95.25,169.9,169.7,171.1,170.2,0.8
95.5,169.7,169.9,168.6,169.4,0.7
95.75,168.8,168.8,168.9,168.9,0.1
96.0,172.1,174.0,168.2,171.4,2.9
96.25,169.5,168.7,167.8,168.7,0.8
96.5,168.2,169.0,169.2,168.8,0.5
96.75,169.2,170.6,169.3,169.7,0.8
97.0,169.4,168.3,166.9,168.2,1.3
97.25,170.9,169.3,168.3,169.5,1.3
97.5,170.9,167.4,168.7,169.0,1.8
97.75,168.4,167.7,166.1,167.4,1.2
98.0,168.9,167.6,163.8,166.8,2.6
98.25,169.5,168.4,168.5,168.8,0.6
98.5,166.1,163.8,166.5,165.5,1.4
98.75,165.5,170.2,169.7,168.5,2.5
99.0,167.3,168.9,163.7,166.6,2.7
99.25,165.7,167.6,168.2,167.2,1.3
99.5,166.1,171.4,165.6,167.7,3.2
99.75,169.3,167.0,161.4,165.9,4.1
100.0,163.0,168.6,167.1,166.2,2.9
100.25,169.8,164.9,166.5,167.0,2.5
100.5,167.2,167.3,166.3,166.9,0.5
100.75,165.4,164.4,164.9,164.9,0.5
101.0,165.7,166.5,167.8,166.7,1.1
101.25,165.8,164.4,165.0,165.1,0.7
101.5,163.7,166.5,163.1,164.4,1.8
101.75,162.6,165.0,163.7,163.8,1.2
102.0,164.1,163.6,164.4,164.0,0.4
102.25,160.6,161.6,162.9,161.7,1.2
102.5,162.8,163.9,163.7,163.5,0.6
102.75,163.6,163.1,164.7,163.8,0.8
103.0,164.4,161.8,162.1,162.8,1.4
103.25,163.9,163.1,165.6,164.2,1.2
103.5,162.1,159.7,161.6,161.2,1.3
103.75,163.8,162.4,161.4,162.5,1.2
104.0,164.1,161.2,160.0,161.8,2.1
104.25,162.9,158.8,163.5,161.7,2.5
104.5,163.1,159.0,160.8,161.0,2.0
104.75,161.3,157.9,160.1,159.7,1.7
105.0,163.8,160.0,159.1,160.9,2.5
105.25,162.8,159.4,162.5,161.6,1.9
105.5,161.7,159.0,158.4,159.7,1.8
105.75,159.1,158.6,159.0,158.9,0.3
106.0,161.0,159.2,163.5,161.2,2.1
106.25,158.0,161.2,159.0,159.4,1.6
106.5,161.9,157.4,158.3,159.2,2.4
106.75,158.2,157.7,157.5,157.8,0.3
107.0,159.2,160.3,159.0,159.5,0.7
107.25,159.4,157.7,158.7,158.6,0.9
107.5,157.2,156.2,160.0,157.8,2.0
107.75,162.0,156.4,156.0,158.1,3.4
108.0,159.5,159.0,155.9,158.1,1.9
108.25,159.5,153.5,156.2,156.4,3.0
108.5,158.2,157.6,156.4,157.4,0.9
108.75,156.9,152.7,157.4,155.7,2.6
109.0,157.8,156.2,157.6,157.2,0.9
109.25,159.6,154.5,154.7,156.2,2.9
109.5,158.5,154.7,157.3,156.8,1.9
109.75,157.5,154.0,155.3,155.6,1.8
110.0,157.5,153.5,156.6,155.9,2.1
110.25,157.7,153.9,156.9,156.2,2.0
110.5,157.6,152.7,154.9,155.0,2.5
110.75,156.4,155.0,153.6,155.0,1.4
111.0,158.0,154.1,156.1,156.1,2.0
111.25,156.1,154.0,152.4,154.1,1.9
111.5,158.9,153.9,155.4,156.0,2.6
111.75,156.5,152.0,154.8,154.5,2.3
112.0,153.3,153.5,156.7,154.5,1.9
112.25,153.9,153.8,153.4,153.7,0.3
112.5,154.6,151.4,150.8,152.3,2.1
112.75,156.5,150.2,153.4,153.4,3.2
113.0,155.5,153.6,154.0,154.4,1.0
113.25,156.6,151.6,152.9,153.7,2.6
113.5,155.0,151.2,154.3,153.5,2.0
113.75,157.0,148.5,152.4,152.6,4.2
114.0,158.1,149.3,152.7,153.4,4.5
114.25,153.8,150.8,151.0,151.9,1.7
114.5,156.1,152.0,151.6,153.2,2.5
114.75,156.1,149.4,154.2,153.2,3.5
115.0,153.0,145.5,151.5,150.0,4.0
115.25,155.2,149.3,152.8,152.4,3.0
115.5,154.4,147.0,155.2,152.2,4.6
115.75,157.1,149.0,152.5,152.9,4.1
116.0,154.3,148.2,151.3,151.2,3.1
116.25,155.6,147.5,150.1,151.1,4.2
116.5,153.9,147.3,150.9,150.7,3.3
116.75,154.9,145.1,152.4,150.8,5.1
117.0,152.3,150.2,153.0,151.8,1.5
117.25,154.0,146.3,151.2,150.5,3.9
117.5,152.8,145.5,153.4,150.6,4.4
117.75,153.9,144.9,152.0,150.3,4.7
118.0,154.5,145.2,150.5,150.0,4.7
118.25,154.5,144.2,149.8,149.5,5.1
118.5,153.0,146.0,150.5,149.8,3.6
118.75,153.7,145.8,149.1,149.5,4.0
119.0,153.9,143.9,149.1,149.0,5.0
119.25,152.8,144.0,153.0,149.9,5.2
119.5,154.3,146.3,150.8,150.5,4.0
119.75,153.4,144.4,151.9,149.9,4.8
120.0,154.3,144.2,150.2,149.6,5.1
120.25,152.8,143.6,150.1,148.8,4.7
120.5,151.9,142.9,148.5,147.8,4.5
120.75,151.5,144.8,147.5,147.9,3.4
121.0,153.6,144.4,151.7,149.9,4.9
121.25,152.2,143.2,148.5,148.0,4.5
121.5,151.2,140.2,146.2,145.9,5.5
121.75,151.1,143.9,149.7,148.2,3.8
122.0,151.8,141.9,148.8,147.5,5.0
122.25,152.8,142.9,147.0,147.6,5.0
122.5,151.7,143.1,145.1,146.7,4.5
122.75,149.7,142.1,148.5,146.8,4.1
123.0,154.0,144.3,150.6,149.6,4.9
123.25,152.0,142.9,151.7,148.9,5.1
123.5,150.9,142.4,150.1,147.8,4.7
123.75,149.4,142.9,147.8,146.7,3.4
124.0,152.0,142.2,146.0,146.7,4.9
124.25,152.1,140.8,148.0,147.0,5.7
124.5,149.5,142.3,147.6,146.5,3.7
124.75,149.6,142.6,143.1,145.1,3.9
125.0,151.8,141.1,146.0,146.3,5.4
125.25,149.0,141.9,148.3,146.4,3.9
125.5,149.6,139.6,147.6,145.6,5.3
125.75,147.8,142.6,146.1,145.5,2.6
126.0,152.1,141.7,149.9,147.9,5.5
126.25,149.8,138.4,147.9,145.4,6.1
126.5,147.4,142.3,146.0,145.2,2.6
126.75,147.6,140.8,145.7,144.7,3.5
127.0,147.9,138.5,144.4,143.6,4.8
127.25,149.1,139.7,146.1,144.9,4.8
127.5,150.4,139.0,146.5,145.3,5.8
127.75,148.9,140.1,145.6,144.8,4.5
128.0,149.8,141.1,147.4,146.1,4.5
128.25,150.3,142.0,145.6,146.0,4.2
128.5,148.6,139.0,145.3,144.3,4.9
128.75,150.0,140.3,145.5,145.3,4.9
129.0,149.6,140.0,145.8,145.1,4.8
129.25,149.6,137.4,144.4,143.8,6.1
129.5,150.1,140.3,144.7,145.0,4.9
129.75,151.4,137.5,143.0,143.9,7.0
130.0,150.7,138.1,144.1,144.3,6.3
130.25,146.3,139.2,143.9,143.1,3.6
130.5,147.6,137.6,144.9,143.4,5.2
130.75,146.8,136.7,143.6,142.4,5.2
131.0,149.7,139.2,140.7,143.2,5.7
131.25,149.7,140.1,142.8,144.2,4.9
131.5,149.9,138.7,144.9,144.5,5.6
131.75,146.5,139.2,144.3,143.4,3.8
132.0,149.1,135.9,144.9,143.3,6.7
132.25,148.2,136.8,145.6,143.6,6.0
132.5,146.9,139.3,143.7,143.3,3.8
132.75,149.0,139.1,145.4,144.5,5.0
133.0,148.5,140.5,143.2,144.1,4.1
133.25,150.3,140.1,144.2,144.9,5.1
133.5,146.8,138.6,144.0,143.1,4.1
133.75,149.8,136.0,143.1,143.0,6.9
134.0,147.0,139.6,143.7,143.4,3.7
134.25,147.8,138.2,143.7,143.2,4.8
134.5,148.1,137.8,142.5,142.8,5.2
134.75,146.0,136.5,144.3,142.3,5.1
135.0,144.7,136.6,142.6,141.3,4.2
135.25,145.2,137.9,140.9,141.3,3.6
135.5,145.9,138.5,143.3,142.5,3.7
135.75,147.3,141.3,140.8,143.1,3.6
136.0,146.5,138.3,143.2,142.7,4.1
136.25,147.4,141.2,142.4,143.7,3.3
136.5,146.3,137.1,143.1,142.2,4.6
136.75,147.9,138.0,144.1,143.3,5.0
137.0,146.4,141.1,144.2,143.9,2.6
137.25,148.7,138.8,142.9,143.5,5.0
137.5,145.6,139.1,144.5,143.1,3.5
137.75,145.1,140.3,142.5,142.7,2.4
138.0,145.7,139.9,143.1,142.9,2.9
138.25,146.8,141.8,142.3,143.6,2.7
138.5,146.5,140.8,141.3,142.9,3.2
138.75,145.7,138.8,144.0,142.8,3.6
139.0,145.8,137.8,141.9,141.8,4.0
139.25,146.3,138.8,142.1,142.4,3.8
139.5,144.0,141.7,142.8,142.8,1.1
139.75,145.1,139.0,140.4,141.5,3.2
140.0,146.4,139.7,144.5,143.5,3.4
140.25,145.4,139.8,144.2,143.1,3.0
140.5,146.4,141.3,143.3,143.7,2.6
140.75,145.0,142.2,143.2,143.5,1.4
141.0,146.1,139.2,142.2,142.5,3.5
141.25,144.5,140.1,142.3,142.3,2.2
141.5,143.9,139.6,144.9,142.8,2.8
141.75,144.1,141.2,143.0,142.8,1.5
142.0,145.3,142.8,143.4,143.8,1.3
142.25,145.7,140.8,143.9,143.5,2.5
142.5,145.5,142.2,142.0,143.2,2.0
142.75,145.9,140.4,140.0,142.1,3.3
143.0,143.8,140.1,144.3,142.7,2.3
143.25,145.5,143.0,140.3,142.9,2.6
143.5,143.1,142.9,139.4,141.8,2.1
143.75,143.9,141.0,142.2,142.4,1.5
144.0,143.2,140.3,143.5,142.3,1.8
144.25,144.1,139.7,143.2,142.3,2.3
144.5,143.7,143.5,140.1,142.4,2.0
144.75,145.3,140.8,139.3,141.8,3.1
145.0,143.9,143.7,140.7,142.7,1.8
145.25,143.8,141.5,142.3,142.5,1.1
145.5,143.7,139.6,139.5,140.9,2.4
145.75,144.8,140.0,140.3,141.7,2.7
146.0,144.4,141.6,140.6,142.2,2.0
146.25,145.8,140.2,141.1,142.4,3.0
146.5,142.9,139.7,138.9,140.5,2.1
146.75,144.1,140.5,140.1,141.6,2.2
147.0,144.6,141.7,139.5,141.9,2.6
147.25,142.3,140.6,139.1,140.7,1.6
147.5,143.2,138.4,139.7,140.4,2.5
147.75,143.2,138.2,139.5,140.3,2.6
148.0,142.0,139.1,140.4,140.5,1.4
148.25,143.9,141.3,141.2,142.1,1.5
148.5,142.8,141.0,140.3,141.3,1.3
148.75,141.2,141.0,141.0,141.1,0.1
149.0,141.9,140.1,140.1,140.7,1.0
149.25,141.3,141.0,140.2,140.8,0.6
149.5,142.0,140.1,139.7,140.6,1.3
149.75,143.7,140.3,137.5,140.5,3.1
150.0,140.7,137.4,135.9,138.0,2.5
150.25,137.4,138.8,137.7,138.0,0.7
150.5,141.9,138.5,138.6,139.6,1.9
150.75,141.1,141.5,142.2,141.6,0.6
151.0,140.9,136.1,137.0,138.0,2.6
151.25,139.6,137.0,140.0,138.8,1.6
151.5,139.6,139.4,137.6,138.9,1.1
151.75,140.8,136.6,138.8,138.8,2.1
152.0,139.2,140.2,140.1,139.9,0.5
152.25,141.0,136.8,138.7,138.8,2.1
152.5,137.5,139.6,138.8,138.6,1.1
152.75,139.2,138.8,137.7,138.6,0.8
153.0,139.3,136.7,138.6,138.2,1.3
153.25,140.4,136.0,136.6,137.7,2.4
153.5,137.9,137.5,137.2,137.5,0.4
153.75,136.9,135.2,137.5,136.5,1.2
154.0,136.1,134.9,136.2,135.8,0.7
154.25,135.3,135.2,136.7,135.8,0.8
154.5,137.9,137.5,139.1,138.2,0.9
154.75,135.7,137.2,138.7,137.2,1.5
155.0,133.0,136.9,138.8,136.2,3.0
155.25,135.1,136.2,137.9,136.4,1.4
155.5,133.5,134.0,138.6,135.3,2.8
155.75,135.6,135.0,139.6,136.7,2.5
156.0,134.8,136.6,137.6,136.3,1.4
156.25,134.8,133.0,136.8,134.9,1.9
156.5,135.0,135.8,136.4,135.7,0.7
156.75,134.5,134.1,136.4,135.0,1.2
157.0,134.4,134.8,137.1,135.4,1.5
157.25,134.7,134.8,136.3,135.3,0.9
157.5,132.6,135.6,139.3,135.8,3.4
157.75,133.7,135.4,135.7,134.9,1.0
158.0,134.5,134.5,138.4,135.8,2.3
158.25,133.1,134.5,138.3,135.3,2.6
158.5,131.5,135.2,135.0,133.9,2.1
158.75,133.2,135.4,136.0,134.9,1.4
159.0,133.2,132.4,137.7,134.4,2.8
159.25,134.2,133.1,135.9,134.4,1.4
159.5,134.0,133.8,136.4,134.7,1.4
159.75,131.5,135.1,133.3,133.3,1.8
160.0,133.1,133.5,134.1,133.5,0.5
160.25,134.3,132.8,135.8,134.3,1.5
160.5,132.2,133.5,139.9,135.2,4.2
160.75,129.8,133.1,138.3,133.7,4.3
161.0,132.0,133.6,136.7,134.1,2.4
161.25,131.8,132.7,135.1,133.2,1.7
161.5,131.3,131.7,137.2,133.4,3.3
161.75,131.9,133.3,136.6,133.9,2.4
162.0,133.6,131.1,135.3,133.3,2.1
162.25,131.6,133.1,135.8,133.5,2.1
162.5,131.2,131.8,132.9,132.0,0.8
162.75,131.0,131.0,133.1,131.7,1.2
163.0,130.9,132.1,131.9,131.6,0.6
163.25,129.7,132.2,133.8,131.9,2.0
163.5,131.9,132.5,135.7,133.4,2.0
163.75,130.7,135.2,138.4,134.8,3.9
164.0,132.3,133.6,132.8,132.9,0.7
164.25,129.6,132.9,134.6,132.4,2.6
164.5,129.0,132.3,133.5,131.6,2.3
164.75,130.6,133.0,133.3,132.3,1.5
165.0,129.6,132.7,131.8,131.4,1.6
165.25,129.8,133.0,135.2,132.7,2.7
165.5,128.6,131.5,135.0,131.7,3.2
165.75,131.3,131.8,132.1,131.7,0.4
166.0,129.7,130.3,132.7,130.9,1.6
166.25,129.3,132.2,132.2,131.2,1.7
166.5,128.3,133.7,132.0,131.3,2.7
166.75,128.0,131.5,133.6,131.0,2.8
167.0,128.2,133.2,132.3,131.2,2.7
167.25,126.6,135.1,132.9,131.5,4.4
167.5,125.8,134.1,132.4,130.8,4.4
167.75,123.9,131.3,133.3,129.5,4.9
168.0,125.6,133.4,131.8,130.3,4.1
168.25,127.9,132.1,131.8,130.6,2.3
168.5,127.8,132.7,131.7,130.7,2.6
168.75,128.0,133.8,131.1,131.0,2.9
169.0,126.6,130.7,132.5,129.9,3.1
169.25,125.2,131.4,132.0,129.5,3.7
169.5,128.0,131.7,132.0,130.6,2.2
169.75,128.4,131.4,134.3,131.3,2.9
170.0,125.4,131.3,133.2,130.0,4.1
170.25,125.7,131.3,131.2,129.4,3.2
170.5,124.9,130.8,132.4,129.4,4.0
170.75,127.3,129.1,133.4,130.0,3.1
171.0,125.2,127.0,131.7,128.0,3.3
171.25,128.4,131.3,132.1,130.6,2.0
171.5,124.5,133.5,131.0,129.7,4.6
171.75,126.2,131.9,131.2,129.8,3.1
172.0,125.3,130.6,129.3,128.4,2.8
172.25,125.5,132.5,132.2,130.1,4.0
172.5,121.8,131.6,131.5,128.3,5.6
172.75,123.0,131.6,130.2,128.2,4.6
173.0,123.8,131.1,131.1,128.7,4.2
173.25,125.6,132.8,130.4,129.6,3.7
173.5,123.1,131.1,132.7,129.0,5.1
173.75,123.3,130.7,130.2,128.1,4.2
174.0,123.2,130.1,131.9,128.4,4.6
174.25,122.6,132.5,131.5,128.8,5.4
174.5,124.8,132.1,130.1,129.0,3.8
174.75,122.3,131.0,129.8,127.7,4.7
175.0,122.8,133.0,131.3,129.1,5.5
175.25,123.0,133.7,131.6,129.4,5.7
175.5,124.9,131.4,131.5,129.2,3.8
175.75,123.1,132.6,131.0,128.9,5.1
176.0,122.2,130.4,132.9,128.5,5.6
176.25,120.5,134.3,132.3,129.0,7.4
176.5,122.2,134.0,128.5,128.2,5.9
176.75,122.6,132.6,130.6,128.6,5.3
177.0,120.1,133.3,129.2,127.5,6.7
177.25,121.5,132.3,128.6,127.5,5.5
177.5,121.1,133.3,130.8,128.4,6.5
177.75,121.0,135.0,129.1,128.4,7.0
178.0,119.2,133.0,129.2,127.1,7.1
178.25,119.3,133.6,129.4,127.5,7.4
178.5,119.4,133.8,130.6,127.9,7.6
178.75,119.6,135.2,128.7,127.8,7.8
179.0,119.1,131.6,131.1,127.3,7.1
179.25,118.1,133.1,127.9,126.4,7.7
179.5,118.4,134.6,129.8,127.6,8.3
179.75,119.0,132.4,131.4,127.6,7.5
180.0,117.3,132.7,129.1,126.3,8.1
180.25,116.8,131.9,127.7,125.5,7.8
180.5,117.0,132.7,129.0,126.2,8.2
180.75,117.1,133.1,127.8,126.0,8.1
181.0,115.9,132.6,128.7,125.8,8.7
181.25,116.0,133.9,127.7,125.9,9.1
181.5,115.9,132.0,128.5,125.5,8.5
181.75,115.1,134.2,129.1,126.1,9.9
182.0,115.4,130.8,127.2,124.5,8.0
182.25,114.5,134.6,128.7,125.9,10.3
182.5,115.0,131.4,128.5,124.9,8.7
182.75,114.1,129.2,126.5,123.3,8.1
183.0,112.7,131.4,128.1,124.0,10.0
183.25,112.8,130.8,126.9,123.5,9.4
183.5,113.0,133.4,127.4,124.6,10.5
183.75,113.4,129.8,127.5,123.6,8.9
184.0,112.6,129.7,126.6,123.0,9.1
184.25,110.5,132.3,127.9,123.5,11.5
184.5,110.3,131.6,127.7,123.2,11.3
184.75,111.6,132.4,126.5,123.5,10.7
185.0,109.6,132.5,126.6,122.9,11.9
185.25,109.1,132.8,125.6,122.5,12.2
185.5,110.5,129.7,127.3,122.5,10.5
185.75,109.1,132.0,128.5,123.2,12.3
186.0,109.3,129.7,127.0,122.0,11.1
186.25,109.1,133.2,129.7,124.0,13.0
186.5,109.2,129.0,126.7,121.6,10.8
186.75,108.6,130.6,129.1,122.8,12.3
187.0,107.9,130.6,129.1,122.5,12.7
187.25,108.3,128.0,125.8,120.7,10.8
187.5,108.6,129.7,126.1,121.5,11.3
187.75,108.3,129.2,126.6,121.4,11.4
188.0,107.5,129.0,125.8,120.8,11.6
188.25,106.5,127.6,125.5,119.9,11.6
188.5,107.5,130.5,128.0,122.0,12.6
188.75,106.3,129.2,126.6,120.7,12.6
189.0,106.8,131.6,125.9,121.5,13.0
189.25,108.5,128.3,126.8,121.2,11.0
189.5,106.0,128.6,125.8,120.1,12.3
189.75,106.1,128.3,125.5,120.0,12.1
190.0,105.6,129.2,123.8,119.5,12.4
190.25,103.4,128.6,125.9,119.3,13.8
190.5,102.8,131.8,126.1,120.3,15.4
190.75,104.4,129.0,127.9,120.4,13.9
191.0,105.7,130.3,126.5,120.8,13.3
191.25,106.5,130.0,126.0,120.8,12.6
191.5,106.9,131.9,125.0,121.3,12.9
191.75,106.0,130.6,126.9,121.2,13.2
192.0,104.6,129.9,125.0,119.8,13.4
192.25,103.6,128.8,125.3,119.2,13.6
192.5,104.4,128.8,125.4,119.5,13.2
192.75,102.9,129.3,124.6,118.9,14.1
193.0,102.9,130.3,124.2,119.2,14.4
193.25,103.0,129.8,124.4,119.1,14.2
193.5,104.8,128.5,124.3,119.2,12.7
193.75,103.6,131.0,123.2,119.3,14.1
194.0,102.3,130.8,124.4,119.2,14.9
194.25,103.0,129.0,124.4,118.8,13.9
194.5,101.8,129.4,122.7,118.0,14.4
194.75,104.0,127.7,123.8,118.5,12.7
195.0,104.1,127.1,122.7,118.0,12.2
195.25,102.9,129.9,122.2,118.3,13.9
195.5,102.3,129.2,124.2,118.5,14.3
195.75,102.0,129.5,122.6,118.1,14.3
196.0,101.7,127.8,122.5,117.3,13.8
196.25,102.3,129.1,123.5,118.3,14.1
196.5,100.2,127.1,123.1,116.8,14.5
196.75,101.5,128.8,125.9,118.7,15.0
197.0,102.9,129.5,124.0,118.8,14.0
197.25,100.6,127.8,122.9,117.1,14.5
197.5,101.4,128.1,122.0,117.1,14.0
197.75,101.2,127.9,122.7,117.3,14.2
198.0,102.3,127.6,122.4,117.5,13.3
198.25,100.7,126.6,122.9,116.8,14.0
198.5,101.0,127.1,123.5,117.2,14.1
198.75,100.5,126.2,123.1,116.6,14.1
199.0,100.9,128.0,122.5,117.1,14.3
199.25,99.8,126.8,121.2,115.9,14.3
199.5,99.7,128.1,120.2,116.0,14.7
199.75,100.8,127.8,121.8,116.8,14.1
200.0,97.8,128.5,122.0,116.1,16.2
200.25,100.1,125.6,120.8,115.5,13.6
200.5,99.9,125.7,120.2,115.3,13.6
200.75,99.6,127.2,120.5,115.8,14.4
201.0,99.3,127.7,119.8,115.6,14.7
201.25,99.2,126.9,122.7,116.3,14.9
201.5,99.2,126.5,119.7,115.2,14.2
201.75,98.1,126.0,121.8,115.3,15.0
202.0,99.2,125.6,120.0,114.9,13.9
202.25,99.7,126.3,119.7,115.2,13.8
202.5,98.0,127.6,120.3,115.3,15.4
202.75,98.2,124.9,120.7,114.6,14.3
203.0,99.0,126.6,119.6,115.1,14.4
203.25,98.0,126.8,119.1,114.7,14.9
203.5,98.9,125.3,117.9,114.1,13.6
203.75,99.8,126.3,118.2,114.8,13.6
204.0,97.6,124.3,116.5,112.8,13.7
204.25,98.4,123.3,117.9,113.2,13.1
204.5,98.5,123.7,117.8,113.4,13.2
204.75,97.8,124.6,117.4,113.3,13.9
205.0,97.6,124.9,117.0,113.2,14.0
205.25,97.8,122.9,117.6,112.8,13.2
205.5,98.3,126.2,115.5,113.3,14.1
205.75,99.4,124.2,115.8,113.1,12.6
206.0,97.9,124.2,117.7,113.3,13.7
206.25,96.6,121.3,116.9,111.6,13.2
206.5,96.1,123.7,115.8,111.9,14.2
206.75,98.2,124.7,117.4,113.4,13.7
207.0,97.0,123.2,117.2,112.5,13.7
207.25,96.7,123.8,116.2,112.2,14.0
207.5,96.8,122.5,115.8,111.7,13.3
207.75,97.0,121.5,115.4,111.3,12.7
208.0,95.7,122.5,114.2,110.8,13.7
208.25,96.1,122.8,114.9,111.3,13.7
208.5,95.5,123.9,114.5,111.3,14.5
208.75,96.5,122.0,116.5,111.7,13.4
209.0,95.5,123.4,113.8,110.9,14.2
209.25,95.1,122.3,114.6,110.7,14.0
209.5,95.9,121.8,113.0,110.2,13.2
209.75,96.2,122.3,113.6,110.7,13.3
210.0,95.3,121.7,112.4,109.8,13.4
210.25,95.1,122.0,113.5,110.2,13.7
210.5,95.7,122.7,112.7,110.4,13.7
210.75,94.8,122.2,112.4,109.8,13.9
211.0,95.8,120.8,112.3,109.6,12.7
211.25,93.8,122.0,112.2,109.4,14.3
211.5,94.4,120.9,112.8,109.4,13.6
211.75,93.6,122.1,111.6,109.1,14.4
212.0,92.8,120.5,111.4,108.2,14.1
212.25,93.2,121.2,110.3,108.2,14.1
212.5,93.0,119.9,110.2,107.7,13.7
212.75,92.9,120.2,112.6,108.5,14.1
213.0,92.2,120.1,111.5,108.0,14.3
213.25,92.9,119.3,110.2,107.5,13.4
213.5,92.5,121.3,110.3,108.0,14.6
213.75,92.4,119.6,109.1,107.1,13.7
214.0,93.4,119.1,109.7,107.4,13.0
214.25,93.4,120.1,109.1,107.5,13.4
214.5,91.3,118.4,107.6,105.8,13.7
214.75,91.4,119.8,108.7,106.6,14.3
215.0,91.1,120.7,110.2,107.4,15.0
215.25,90.7,121.8,110.3,107.6,15.7
215.5,89.2,119.2,109.0,105.8,15.3
215.75,89.0,120.5,107.2,105.5,15.8
216.0,89.4,120.4,108.6,106.1,15.6
216.25,88.8,121.0,108.6,106.1,16.2
216.5,88.6,121.6,107.3,105.8,16.6
216.75,89.0,117.8,107.4,104.7,14.6
217.0,88.5,120.9,108.1,105.8,16.3
217.25,88.6,120.0,106.7,105.1,15.8
217.5,88.1,121.6,108.7,106.1,16.9
217.75,89.0,118.9,107.4,105.1,15.1
218.0,87.3,119.0,106.5,104.3,15.9
218.25,87.4,119.6,106.4,104.5,16.2
218.5,86.9,116.6,107.6,103.7,15.2
218.75,86.3,120.5,107.3,104.7,17.2
219.0,85.8,118.5,106.2,103.5,16.5
219.25,87.1,118.5,104.6,103.4,15.7
219.5,86.8,119.6,106.1,104.1,16.5
219.75,86.6,117.1,105.8,103.2,15.4
220.0,85.2,118.0,104.5,102.6,16.5
220.25,86.1,118.1,106.2,103.4,16.2
220.5,84.7,118.3,106.2,103.0,17.0
220.75,85.5,118.0,105.1,102.9,16.4
221.0,83.1,117.4,102.0,100.8,17.2
221.25,82.9,117.3,103.8,101.3,17.3
221.5,83.3,118.2,103.0,101.5,17.5
221.75,81.9,116.4,103.7,100.7,17.4
222.0,82.0,116.3,104.2,100.8,17.4
222.25,81.1,116.4,104.5,100.7,18.0
222.5,81.6,117.3,103.7,100.8,18.0
222.75,82.0,116.9,104.0,101.0,17.6
223.0,81.1,116.6,103.8,100.5,18.0
223.25,82.6,118.2,102.3,101.0,17.8
223.5,80.7,117.4,102.3,100.1,18.5
223.75,80.4,116.0,102.4,99.6,18.0
224.0,80.2,116.2,103.6,100.0,18.3
224.25,78.0,115.1,102.7,98.6,18.9
224.5,78.3,114.9,101.9,98.4,18.5
224.75,77.9,117.0,101.6,98.9,19.7
225.0,77.5,114.9,101.6,98.0,18.9
225.25,77.4,115.1,100.4,97.6,19.0
225.5,77.1,114.9,100.1,97.4,19.1
225.75,77.0,113.8,100.4,97.1,18.6
226.0,76.4,113.7,102.0,97.4,19.1
226.25,75.9,113.5,101.1,96.8,19.2
226.5,76.9,114.2,100.4,97.2,18.9
226.75,73.7,115.4,100.9,96.7,21.1
227.0,74.7,114.4,100.1,96.4,20.1
227.25,74.1,114.0,100.6,96.2,20.3
227.5,74.1,114.4,99.7,96.0,20.4
227.75,73.0,115.2,100.2,96.1,21.4
228.0,73.3,113.9,100.0,95.8,20.7
228.25,72.7,116.4,99.5,96.2,22.1
228.5,72.6,114.7,100.0,95.8,21.4
228.75,72.2,112.8,99.0,94.6,20.6
229.0,71.8,115.4,101.0,96.1,22.2
229.25,72.1,113.9,100.9,95.6,21.4
229.5,71.6,114.0,100.5,95.4,21.6
229.75,71.1,115.8,98.6,95.1,22.5
230.0,71.6,113.5,98.4,94.5,21.2
230.25,71.7,117.2,99.2,96.0,22.9
230.5,70.9,114.1,99.7,94.9,22.0
230.75,69.8,114.5,99.2,94.5,22.7
231.0,70.2,113.8,99.0,94.3,22.2
231.25,71.0,113.2,100.1,94.8,21.6
231.5,69.2,112.9,99.2,93.7,22.4
231.75,68.8,115.7,98.5,94.3,23.8
232.0,69.0,113.2,98.8,93.7,22.6
232.25,68.3,113.2,100.7,94.1,23.2
232.5,68.4,113.7,98.7,93.6,23.0
232.75,67.2,114.5,99.7,93.8,24.2
233.0,68.4,113.8,99.3,93.8,23.2
233.25,68.0,113.0,99.4,93.5,23.1
233.5,67.9,113.2,99.2,93.4,23.2
233.75,66.4,113.8,98.7,92.9,24.2
234.0,66.3,114.8,97.5,92.8,24.6
234.25,66.5,114.2,97.7,92.8,24.2
234.5,65.8,113.2,99.2,92.7,24.4
234.75,65.8,112.4,98.7,92.3,23.9
235.0,64.1,109.3,96.1,89.8,23.2
235.25,64.1,113.1,96.2,91.1,24.9
235.5,64.0,112.2,96.0,90.7,24.5
235.75,63.0,113.7,96.9,91.2,25.8
236.0,61.8,113.4,96.6,90.6,26.3
236.25,61.9,113.2,96.5,90.6,26.2
236.5,61.2,111.7,95.3,89.4,25.8
236.75,61.3,110.0,95.1,88.8,24.9
237.0,60.9,110.4,95.2,88.8,25.3
237.25,60.1,111.7,95.5,89.1,26.4
237.5,59.5,111.6,95.2,88.8,26.6
237.75,59.7,113.0,94.2,89.0,27.0
238.0,59.5,111.0,93.7,88.1,26.2
238.25,59.0,110.5,93.7,87.7,26.3
238.5,58.9,111.6,92.9,87.8,26.7
238.75,58.7,111.0,93.1,87.6,26.6
239.0,58.4,110.0,92.6,87.0,26.3
239.25,57.6,110.8,93.7,87.4,27.1
239.5,57.9,109.4,93.2,86.8,26.3
239.75,57.5,110.4,91.8,86.5,26.8
240.0,57.1,109.5,92.3,86.3,26.7
240.25,56.9,110.1,92.2,86.4,27.1
240.5,55.8,107.7,90.5,84.6,26.4
240.75,55.3,108.3,91.2,84.9,27.1
241.0,55.1,109.0,91.5,85.2,27.5
241.25,55.2,107.1,90.7,84.4,26.5
241.5,54.3,107.7,91.3,84.4,27.3
241.75,54.3,107.6,90.1,84.0,27.2
242.0,53.7,107.8,88.8,83.4,27.4
242.25,53.5,107.9,88.1,83.2,27.5
242.5,52.6,106.0,88.4,82.3,27.2
242.75,52.3,106.6,89.3,82.7,27.7
243.0,52.9,105.9,88.1,82.3,27.0
243.25,52.2,105.9,85.3,81.1,27.1
243.5,52.1,106.4,85.9,81.4,27.4
243.75,51.9,104.5,86.7,81.0,26.8
244.0,50.4,104.2,85.2,79.9,27.3
244.25,50.4,102.9,85.5,79.6,26.8
244.5,51.4,103.7,86.0,80.4,26.6
244.75,51.3,101.4,84.8,79.2,25.5
245.0,50.0,103.4,82.9,78.7,26.9
245.25,49.8,103.3,82.9,78.7,27.0
245.5,50.2,102.6,84.0,78.9,26.6
245.75,49.5,102.6,82.7,78.3,26.8
246.0,50.3,101.5,83.4,78.4,26.0
246.25,50.4,98.5,83.3,77.4,24.6
246.5,49.9,98.2,82.1,76.7,24.6
246.75,49.5,99.6,82.7,77.3,25.5
247.0,49.4,98.2,80.4,76.0,24.7
247.25,49.9,97.1,80.4,75.8,23.9
247.5,48.6,97.2,78.3,74.7,24.5
247.75,48.9,97.0,79.9,75.3,24.4
248.0,48.7,97.1,78.1,74.6,24.4
248.25,48.2,95.6,78.0,73.9,24.0
248.5,47.4,94.8,77.0,73.1,24.0
248.75,46.5,94.2,75.7,72.1,24.1
249.0,46.7,95.0,76.2,72.6,24.3
249.25,47.2,94.2,76.3,72.6,23.7
249.5,46.6,93.4,75.0,71.7,23.6
249.75,45.8,91.6,75.6,71.0,23.2
250.0,45.9,91.4,74.1,70.5,22.9
250.25,45.9,90.5,74.1,70.2,22.5
250.5,45.3,92.1,73.4,70.2,23.6
250.75,45.2,91.0,73.8,70.0,23.1
251.0,45.5,90.5,71.6,69.2,22.6
251.25,44.9,89.7,71.6,68.7,22.5
251.5,45.1,89.2,71.3,68.5,22.2
251.75,44.4,88.8,70.5,67.9,22.4
252.0,44.3,89.3,69.6,67.7,22.5
252.25,44.1,87.9,70.8,67.6,22.1
252.5,43.9,87.8,69.7,67.1,22.1
252.75,44.7,87.1,69.7,67.2,21.3
253.0,44.0,87.7,68.6,66.7,21.9
253.25,43.2,86.9,69.1,66.4,22.0
253.5,43.5,86.1,67.3,65.6,21.4
253.75,43.3,85.4,66.7,65.1,21.1
254.0,42.6,84.7,67.1,64.8,21.1
254.25,43.4,85.2,66.0,64.8,20.9
254.5,43.4,84.6,66.1,64.7,20.6
254.75,43.2,83.7,65.2,64.0,20.2
255.0,42.5,81.9,65.6,63.3,19.8
255.25,42.1,83.4,65.5,63.6,20.7
255.5,42.3,83.2,65.7,63.7,20.5
255.75,41.9,82.0,64.2,62.7,20.1
256.0,42.2,82.3,63.8,62.8,20.1
256.25,41.7,82.6,63.0,62.5,20.5
256.5,42.1,81.7,62.7,62.2,19.8
256.75,40.8,82.0,63.5,62.1,20.6
257.0,41.1,81.9,61.8,61.6,20.4
257.25,41.3,79.7,60.4,60.5,19.2
257.5,41.1,80.7,61.1,61.0,19.8
257.75,40.5,80.7,60.2,60.4,20.1
258.0,41.0,80.4,60.2,60.5,19.7
258.25,40.5,80.8,60.5,60.6,20.2
258.5,40.4,80.5,59.7,60.2,20.0
258.75,40.3,79.6,59.5,59.8,19.7
259.0,41.2,79.5,58.2,59.7,19.2
259.25,41.0,79.8,58.5,59.8,19.4
259.5,40.4,79.0,57.8,59.1,19.4
259.75,40.3,78.7,56.6,58.5,19.3
260.0,39.7,79.0,56.3,58.3,19.8
260.25,40.1,77.8,56.2,58.0,19.0
260.5,39.5,78.1,56.4,58.0,19.4
260.75,39.3,77.8,55.2,57.4,19.4
261.0,39.5,77.5,54.4,57.2,19.1
261.25,39.3,78.1,53.5,57.0,19.7
261.5,39.1,77.0,53.7,56.6,19.1
261.75,39.1,76.4,53.4,56.3,18.8
262.0,38.7,77.2,52.8,56.2,19.5
262.25,38.8,77.2,52.4,56.1,19.5
262.5,39.0,77.0,53.0,56.4,19.2
262.75,38.7,75.1,52.1,55.3,18.4
263.0,38.5,76.6,51.7,55.6,19.3
263.25,38.5,75.8,51.5,55.3,18.9
263.5,38.4,77.4,50.5,55.4,19.9
263.75,38.3,75.0,50.4,54.5,18.7
264.0,38.6,76.8,49.4,54.9,19.7
264.25,38.7,75.9,49.5,54.7,19.1
264.5,38.2,75.9,49.6,54.5,19.3
264.75,38.1,74.5,48.1,53.6,18.8
265.0,38.1,75.4,47.8,53.8,19.3
265.25,38.3,75.3,47.8,53.8,19.2
265.5,37.9,75.9,47.3,53.7,19.8
265.75,37.8,73.6,47.2,52.9,18.6
266.0,37.7,75.3,46.1,53.0,19.7
266.25,38.5,73.0,45.8,52.4,18.2
266.5,38.4,74.5,46.2,53.0,19.0
266.75,38.4,74.5,45.4,52.8,19.2
267.0,38.3,74.4,44.9,52.5,19.2
267.25,38.3,74.2,44.5,52.3,19.2
267.5,38.5,72.4,44.2,51.7,18.1
267.75,38.5,73.2,44.1,51.9,18.6
268.0,38.5,72.3,43.9,51.5,18.1
268.25,38.0,71.5,44.1,51.2,17.8
268.5,38.5,71.7,44.3,51.5,17.7
268.75,38.9,70.7,43.1,50.9,17.3
269.0,38.5,69.8,43.3,50.6,16.9
269.25,39.0,71.2,42.8,51.0,17.6
269.5,39.0,69.9,43.1,50.6,16.8
269.75,38.4,70.5,42.6,50.5,17.5
270.0,39.3,69.3,42.0,50.2,16.6
270.25,39.2,69.2,42.7,50.3,16.4
270.5,38.9,69.7,41.5,50.0,17.1
270.75,39.0,69.3,41.9,50.1,16.7
271.0,38.6,68.7,40.6,49.3,16.8
271.25,38.6,67.1,40.2,48.6,16.0
271.5,38.5,68.6,40.2,49.1,16.9
271.75,38.2,67.7,39.5,48.5,16.7
272.0,38.5,66.7,39.4,48.2,16.1
272.25,38.5,67.6,39.5,48.5,16.5
272.5,38.2,66.1,39.1,47.8,15.9
272.75,38.4,66.5,39.0,48.0,16.0
273.0,38.4,66.2,38.7,47.7,16.0
273.25,38.3,66.2,38.5,47.7,16.1
273.5,38.3,65.2,38.4,47.3,15.5
273.75,38.5,64.3,38.2,47.0,15.0
274.0,38.2,65.2,37.7,47.0,15.7
274.25,38.9,65.0,37.8,47.2,15.4
274.5,38.2,63.1,37.9,46.4,14.5
274.75,38.8,64.0,37.6,46.8,14.9
275.0,38.1,62.7,37.0,45.9,14.6
275.25,38.1,63.5,37.4,46.3,14.9
275.5,37.6,63.2,36.6,45.8,15.1
275.75,37.8,62.4,36.9,45.7,14.5
276.0,37.6,62.2,37.2,45.7,14.3
276.25,37.5,61.1,36.9,45.2,13.8
276.5,37.1,61.1,36.5,44.9,14.0
276.75,37.3,60.6,35.8,44.6,13.9
277.0,37.4,60.9,36.0,44.8,14.0
277.25,37.5,60.4,36.5,44.8,13.5
277.5,37.6,60.0,35.8,44.5,13.5
277.75,37.3,59.7,35.7,44.3,13.4
278.0,36.9,59.6,35.6,44.0,13.5
278.25,37.3,59.6,35.6,44.1,13.4
278.5,36.4,59.2,35.8,43.8,13.4
278.75,36.8,59.4,35.3,43.8,13.5
279.0,36.3,58.6,35.4,43.4,13.1
279.25,36.3,59.2,35.7,43.7,13.4
279.5,36.5,57.7,35.4,43.2,12.6
279.75,36.7,57.5,35.6,43.3,12.3
280.0,36.3,57.5,35.3,43.0,12.5
280.25,36.2,57.3,35.8,43.1,12.3
280.5,36.4,56.9,35.4,42.9,12.1
280.75,36.1,56.7,35.0,42.6,12.2
281.0,36.3,56.2,34.5,42.3,12.0
281.25,36.1,55.6,34.6,42.1,11.7
281.5,36.1,55.2,34.7,42.0,11.4
281.75,36.0,55.9,35.1,42.3,11.8
282.0,36.0,55.0,34.7,41.9,11.4
282.25,35.9,54.9,34.5,41.8,11.4
282.5,35.6,55.0,34.2,41.6,11.7
282.75,35.4,54.5,34.3,41.4,11.3
283.0,35.2,54.5,34.5,41.4,11.4
283.25,35.3,54.2,34.1,41.2,11.3
283.5,35.4,54.2,33.9,41.2,11.3
283.75,35.2,53.3,33.4,40.6,11.0
284.0,35.1,53.8,33.1,40.7,11.4
284.25,35.0,53.5,33.6,40.7,11.1
284.5,35.5,53.2,33.1,40.6,11.0
284.75,35.3,52.7,32.9,40.3,10.8
285.0,35.1,52.2,32.9,40.1,10.6
285.25,35.5,52.6,32.9,40.3,10.7
285.5,35.1,51.6,33.0,39.9,10.2
285.75,34.6,51.9,33.0,39.8,10.5
286.0,34.7,51.6,32.5,39.6,10.5
286.25,34.8,51.4,32.2,39.5,10.4
286.5,34.4,50.9,32.3,39.2,10.2
286.75,35.3,50.4,32.3,39.3,9.7
287.0,34.2,49.5,32.9,38.8,9.3
287.25,34.3,49.8,32.3,38.8,9.6
287.5,33.8,48.9,31.9,38.2,9.3
287.75,34.0,48.6,32.0,38.2,9.0
288.0,34.1,48.6,31.8,38.2,9.1
288.25,34.5,48.3,32.1,38.3,8.7
288.5,33.6,47.6,31.8,37.7,8.7
288.75,34.2,47.7,31.5,37.8,8.7
289.0,33.6,47.4,31.9,37.6,8.5
289.25,33.4,47.2,31.5,37.4,8.6
289.5,33.3,47.0,31.6,37.3,8.4
289.75,33.4,46.7,31.5,37.2,8.3
290.0,33.1,46.2,31.8,37.0,8.0
290.25,33.2,46.3,31.5,37.0,8.1
290.5,32.7,46.4,31.9,37.0,8.1
290.75,32.7,46.0,31.6,36.8,8.0
291.0,33.1,46.6,31.7,37.1,8.3
291.25,33.0,45.3,31.6,36.6,7.5
291.5,32.7,45.9,31.9,36.8,7.9
291.75,32.7,46.1,31.5,36.8,8.1
292.0,32.7,46.2,31.4,36.8,8.2
292.25,32.3,45.5,31.4,36.4,7.9
292.5,33.1,45.2,31.3,36.5,7.5
292.75,32.4,45.1,31.0,36.2,7.7
293.0,32.7,44.4,31.2,36.1,7.2
293.25,32.9,45.2,31.5,36.5,7.5
293.5,32.5,44.6,31.3,36.1,7.3
293.75,32.2,44.4,31.3,36.0,7.3
294.0,32.7,44.1,31.6,36.1,6.9
294.25,32.0,43.8,31.3,35.7,7.0
294.5,32.8,44.0,31.4,36.1,6.9
294.75,32.4,43.9,32.0,36.1,6.7
295.0,32.3,44.0,31.5,35.9,7.0
295.25,32.8,44.6,31.3,36.2,7.3
295.5,32.4,43.9,30.9,35.7,7.1
295.75,32.3,43.3,31.2,35.6,6.7
296.0,32.0,43.5,31.1,35.6,6.9
296.25,32.5,42.6,30.9,35.3,6.3
296.5,32.6,43.0,30.8,35.5,6.6
296.75,32.6,42.8,31.1,35.5,6.4
297.0,31.7,43.2,31.3,35.4,6.8
297.25,32.2,42.9,30.8,35.3,6.6
297.5,32.0,42.8,30.5,35.1,6.7
297.75,31.6,43.2,30.1,34.9,7.2
298.0,31.7,42.8,30.7,35.1,6.7
298.25,31.5,42.3,30.7,34.9,6.5
298.5,31.3,42.5,30.6,34.8,6.7
298.75,31.1,42.5,30.9,34.8,6.6