File: 01_Data/Straw/Cone/Straw_Cone_HF35Scan_181018_R1.csv
Names,Time,Stack TC,Smoke TC,Exh Press,Smoke Comp,Smoke Meas,CO Meter,CO2 Meter,O2 Meter,Sample Mass,Ext Coeff,Start Test,Flame Verif
Chan Gain,,500,500,1,1,1,1,1,1,1,1,1,1
Offset,,0,0,0.14301,0,0,0,0,0,0,0,0,0
Gain,,1,1,25.011,13.5312,14.6783,1,1,1,1.00099,1.04424,1,1
Units,sec,C,C,Pa,%,%,%,%,%,g,/m,,
Baseline,,39.4811,41.3865,180.83,98.7539,97.5375,0.004117919,0.0528277,20.963,-0.908568,0.113591,,
2,0.25,37.5504,38.5001,183.193,98.4697,96.8649,0.004317697,0.0542136,20.9568,927.681,0.150511,0,0
4,0.75,37.4212,38.397,180.989,98.4664,96.8909,0.004312441,0.0545007,20.9556,926.72,0.147746,0,0
6,1.25,37.1941,38.7638,180.811,98.4714,97.4768,0.004308183,0.0547333,20.9547,926.78,0.0929818,0,0
8,1.75,37.3316,38.9576,181.61,98.4664,97.3671,0.004286962,0.0550486,20.9539,927.321,0.10284,0,0
10,2.25,37.7938,38.9953,178.244,98.4623,97.9306,0.004269773,0.0554183,20.9533,927.111,0.04959441,0,0
12,2.75,38.2131,39.0404,183.226,98.4544,97.523,0.004240839,0.0557177,20.9527,926.73,0.0870726,0,0
14,3.25,38.1796,38.955,176.247,98.4697,97.7201,0.004228504,0.0561761,20.9524,926.98,0.0699994,0,0
16,3.75,38.035,39.0882,185.145,98.4565,97.2094,0.004211361,0.0565475,20.9519,927.191,0.116764,0,0
18,4.25,37.9474,39.2021,184.019,98.4598,96.2786,0.004201028,0.0570007,20.9515,926.96,0.205207,0,0
20,4.75,38.1534,39.5498,184.18,98.4511,96.7297,0.004192659,0.0573679,20.9503,926.82,0.161583,0,0
22,5.25,37.9085,39.958,175.829,98.4507,97.0764,0.00418588,0.0577453,20.9493,926.88,0.128771,0,0
24,5.75,38.4179,39.5625,181.234,98.4441,96.0147,0.004268634,0.058123,20.9491,927,0.228883,0,0
26,6.25,38.5153,39.4401,180.823,98.4515,95.5072,0.004335665,0.0582841,20.9494,926.88,0.278121,0,0
28,6.75,38.4643,39.5356,186.427,98.4387,95.1999,0.00438996,0.0587502,20.9496,926.79,0.306449,0,0
30,7.25,38.2857,39.7964,178.155,98.4474,95.0678,0.004539283,0.0591277,20.9491,926.91,0.3199808,0,0
32,7.75,38.3689,40.2654,183.932,98.4495,94.1656,0.004660233,0.0594335,20.9481,926.94,0.407514,0,0
34,8.25,38.2885,40.3268,174.42,98.4449,94.425,0.004805297,0.0617335,20.9436,926.951,0.381895,0,0
36,8.75,38.8269,40.2151,175.575,98.4317,96.2777,0.004922798,0.06359648,20.9366,926.67,0.202678,0,0
38,9.25,38.9939,40.1152,167.465,98.4396,98.1806,0.005031168,0.0676901,20.9244,926.77,0.0241321,0,1
40,9.75,38.8174,40.8932,169.864,98.4363,98.3942,0.005118948,0.073332,20.9085,926.69,0.003911654,0,1
42,10.25,39.1013,42.0709,170.319,98.447,97.5991,0.005186274,0.0779019,20.8927,927.411,0.0792307,0,1
44,10.75,39.8535,42.7971,174.954,98.4424,99.0697,0.005240808,0.0866188,20.8771,926.27,-0.0581844,0,1
46,11.25,40.1915,43.2044,170.316,98.44,98.1403,0.005286967,0.0936794,20.8641,926.14,0.0279323,0,1
48,11.75,40.5796,43.9476,169.162,98.4387,96.7565,0.005326145,0.102417,20.8532,926.82,0.157886,0,1
50,12.25,41.1903,44.7254,173.766,98.4482,97.6457,0.005366811,0.109494,20.8443,926.62,0.0749753,0,1
52,12.75,41.9768,45.0738,174.898,98.4408,97.6995,0.005407789,0.116344,20.8371,926.07,0.0692419,0,1
54,13.25,42.3658,45.4436,168.633,98.4449,98.1255,0.005440981,0.1229,20.8313,926.37,0.029773,0,1
56,13.75,41.8238,45.9555,177.176,98.4313,97.2202,0.005489708,0.129005,20.8266,926.56,0.113407,0,1
58,14.25,42.2057,46.5274,174.614,98.4296,98.0211,0.005548835,0.134665,20.8227,926.23,0.0380999,0,1
60,14.75,42.3953,46.8346,169.424,98.4387,98.0946,0.005596728,0.139885,20.8196,926.05,0.0320823,0,0
62,15.25,42.9274,46.7808,174.459,98.4445,98.3105,0.005663835,0.144686,20.8171,926.25,0.01248023,0,0
64,15.75,42.963,47.0652,171.406,98.4305,98.1824,0.005718192,0.148574,20.8151,926.31,0.0231192,0,0
66,16.25,43.4313,47.6395,174.777,98.4164,97.3563,0.005784885,0.152447,20.8137,926.09,0.0992026,0,0
68,16.75,43.3693,48.3173,172.167,98.4313,98.809,0.005838907,0.156235,20.8127,926.019,-0.0350851,0,0
70,17.25,43.9591,48.1851,173.283,98.4272,98.3965,0.005891613,0.159303,20.812,926.1,0.002857211,0,0
72,17.75,43.6634,48.8268,176.138,98.4375,98.4668,0.005942357,0.162694,20.8114,926.08,-0.002727028,0,0
74,18.25,43.9026,48.55,173.565,98.4309,97.6887,0.005984454,0.165441,20.8109,925.939,0.0693275,0,0
76,18.75,44.2499,48.9489,169.597,98.4243,97.97,0.006019447,0.168249,20.8105,925.879,0.0423736,0,0
78,19.25,44.1681,49.6123,171.369,98.433,98.0301,0.006040831,0.170524,20.8101,925.959,0.03757032,0,0
80,19.75,44.8506,49.4791,171.134,98.4354,97.2703,0.006051886,0.172724,20.8094,925.939,0.109065,0,0
82,20.25,45.1677,49.8903,173.602,98.4251,97.9951,0.006060842,0.174828,20.8089,925.799,0.0401049,0,0
84,20.75,44.6703,49.7294,171.011,98.4338,98.3011,0.006054182,0.176868,20.8084,925.739,0.0123581,0,0
86,21.25,44.6292,50.475,169.255,98.4284,98.6872,0.006036263,0.178825,20.8072,925.769,-0.02405192,0,0
88,21.75,45.3468,50.1003,176.439,98.4424,97.1718,0.006020755,0.18079,20.8062,925.719,0.119003,0,0
90,22.25,45.0748,50.8201,171.022,98.4321,97.7331,0.006007296,0.182724,20.804,925.629,0.0652854,0,0
92,22.75,45.7618,50.3821,173.169,98.4383,97.8361,0.005996395,0.184291,20.8023,925.619,0.0562116,0,0
94,23.25,45.2956,51.0775,170.399,98.4214,97.8401,0.006008339,0.186395,20.8007,925.609,0.0542579,0,0
96,23.75,45.6467,51.1548,171.02,98.4383,98.3777,0.006018013,0.1881,20.7992,925.559,0.005645872,0,0
98,24.25,45.7527,50.875,171.575,98.4276,96.7243,0.006061748,0.190022,20.7975,925.519,0.159901,0,0
100,24.75,45.6779,51.7343,171.614,98.4313,96.5339,0.006097174,0.192067,20.7957,925.469,0.178295,0,0
102,25.25,46.2238,51.5373,173.867,98.435,97.0069,0.006175037,0.193723,20.7938,925.469,0.133864,0,0
104,25.75,45.9303,51.7377,165.834,98.4363,97.2784,0.006238107,0.19585,20.7919,925.399,0.108384,0,0
106,26.25,46.5085,52.0155,171.474,98.4301,97.4146,0.006336512,0.197573,20.7898,925.339,0.0949932,0,0
108,26.75,46.2636,52.1432,172.305,98.4379,97.3335,0.006416219,0.199769,20.7878,925.299,0.103351,0,0
110,27.25,46.8446,52.4103,169.713,98.4354,96.5124,0.006480782,0.201548,20.7861,925.279,0.180719,0,0
112,27.75,46.7731,52.4116,167.794,98.4391,97.562,0.00658423,0.203626,20.7848,925.249,0.0819908,0,0
114,28.25,46.60569,53.1232,172.795,98.4284,97.3402,0.006668023,0.205309,20.7837,925.179,0.101834,0,0
116,28.75,47.0025,53.1348,168.199,98.4367,97.6072,0.006735895,0.207185,20.7828,925.159,0.0775136,0,0
118,29.25,47.1297,53.24,165.907,98.4317,97.7505,0.006792864,0.208705,20.7821,925.099,0.0636102,0,0
120,29.75,47.4546,53.9672,175.312,98.4383,98.1241,0.006840801,0.210229,20.7811,925.079,0.0292832,0,0
122,30.25,47.5911,53.5587,169.877,98.4346,97.7286,0.006874645,0.211727,20.7803,925.049,0.0659359,0,0
124,30.75,47.4123,54.0275,173.681,98.4416,97.6488,0.006897573,0.21294,20.7797,924.978,0.0740665,0,0
126,31.25,47.9666,54.015,172.921,98.4338,97.3519,0.006914146,0.213922,20.7792,924.918,0.101239,0,0
128,31.75,47.9394,53.8478,175.972,98.4396,98.1815,0.006925773,0.214968,20.7788,924.868,0.0240483,0,0
130,32.25,47.784,54.2871,171.19,98.4259,97.6632,0.00693519,0.216038,20.7785,924.808,0.0712607,0,0
132,32.75,47.7646,53.8789,169.977,98.4321,96.9751,0.006942819,0.217001,20.7786,924.738,0.136599,0,0
134,33.25,47.691,54.627,173.543,98.4259,98.0211,0.006948998,0.217867,20.7788,924.668,0.037753,0,0
136,33.75,48.2285,54.5271,172.885,98.433,98.1694,0.006964382,0.218678,20.7789,924.688,0.0245623,0,0
138,34.25,47.9599,54.7556,168.401,98.4305,96.7171,0.006976843,0.219434,20.779,924.628,0.16085,0,0
140,34.75,48.4361,54.6387,167.49,98.428,97.5288,0.006982156,0.220047,20.779,924.598,0.0840663,0,0
142,35.25,48.1688,54.4104,174.93,98.4202,97.6076,0.007011199,0.220669,20.7791,924.558,0.0759348,0,0
144,35.75,48.4814,55.1912,172.169,98.4301,98.0363,0.007052688,0.221172,20.7793,924.508,0.0367155,0,0
146,36.25,48.5436,54.7516,176.022,98.4235,97.3044,0.007110262,0.221678,20.7795,924.478,0.104746,0,0
148,36.75,48.4237,55.2949,177.306,98.4358,97.6067,0.007178467,0.222088,20.7796,924.438,0.0774789,0,0
150,37.25,48.4503,54.7897,173.869,98.409,97.1364,0.007233713,0.222457,20.7797,924.388,0.119227,0,0
152,37.75,48.423,55.6568,173.728,98.4193,97.394,0.007308847,0.222632,20.7798,924.338,0.0959312,0,0
154,38.25,49.053,55.4778,169.683,98.4193,98.263,0.007369705,0.222931,20.7799,924.298,0.0145617,0,0
156,38.75,48.7455,55.3722,169.687,98.4354,97.1687,0.007428505,0.223137,20.7802,924.268,0.118646,0,0
158,39.25,48.4532,55.6733,171.244,98.4115,98.3387,0.007476133,0.223271,20.7806,924.218,0.006777466,0,0
160,39.75,49.1072,55.6505,171.921,98.4334,97.9396,0.007512809,0.223379,20.7812,924.208,0.0460673,0,0
162,40.25,48.6216,55.2777,175.615,98.4189,97.5637,0.007542516,0.223271,20.7819,924.158,0.07993973,0,0
164,40.75,48.7233,55.8438,168.945,98.4263,98.0856,0.007557079,0.223184,20.7824,924.118,0.0317667,0,0
166,41.25,48.8968,55.6008,173.34,98.4119,97.5534,0.007568875,0.223083,20.7829,924.098,0.0802536,0,0
168,41.75,48.9017,55.2942,170.762,98.4148,98.0708,0.00757843,0.222976,20.7832,924.048,0.0320703,0,0
170,42.25,48.9234,55.6394,169.832,98.4189,97.7631,0.00756908,0.222845,20.7835,924.008,0.0612437,0,0
172,42.75,48.8586,55.8382,167.434,98.4226,98.6702,0.007561506,0.222699,20.7838,923.977,-0.0230102,0,0
174,43.25,49.311,55.6077,172.126,98.409,98.1335,0.007547778,0.222511,20.784,923.9375,0.0256763,0,0
176,43.75,49.1412,56.0664,170.176,98.4292,98.3378,0.007536658,0.222359,20.7841,923.897,0.008513324,0,0
178,44.25,49.0543,56.0087,173.247,98.4152,97.1597,0.007530171,0.222213,20.7843,923.837,0.117608,0,0
180,44.75,49.5972,55.6937,165.821,98.4193,98.2486,0.007527186,0.222076,20.7848,923.797,0.0158982,0,0
182,45.25,49.0257,56.2344,172.273,98.4235,96.6463,0.007533762,0.221964,20.7852,923.757,0.166902,0,0
184,45.75,49.7991,55.9321,170.037,98.4255,98.3279,0.007547183,0.22183,20.7855,923.697,0.009084961,0,0
186,46.25,49.2154,55.7866,163.157,98.4094,98.0005,0.007558054,0.221682,20.7856,923.677,0.0381423,0,0
188,46.75,49.3221,56.2101,173.592,98.44,98.5963,0.00758586,0.221525,20.786,923.667,-0.0145313,0,0
190,47.25,49.0624,56.1401,168.801,98.4082,98.2854,0.007608383,0.221365,20.7865,923.627,0.0114366,0,0
192,47.75,49.7346,55.8093,169.699,98.4218,97.1695,0.007631624,0.221235,20.7868,923.587,0.117293,0,0
194,48.25,49.1006,55.8772,173.063,98.4135,98.4901,0.007654947,0.221087,20.7872,923.547,-0.007122341,0,0
196,48.75,49.411,55.939,170.662,98.414,96.9277,0.007673839,0.220967,20.7874,923.477,0.139395,0,0
198,49.25,49.2504,55.7448,167.085,98.4111,97.3716,0.007685347,0.220828,20.7874,923.457,0.0972699,0,0
200,49.75,49.6458,56.0248,170.691,98.4135,97.6327,0.007694668,0.220716,20.7872,923.427,0.072966,0,0
202,50.25,49.5887,55.9184,172.256,98.4098,97.8948,0.007696218,0.220625,20.787,923.397,0.0480673,0,0
204,50.75,49.5629,56.5275,174.96,98.4115,98.5981,0.007692073,0.220551,20.7868,923.367,-0.0173496,0,0
206,51.25,49.5235,56.6342,171.605,98.4255,97.5758,0.007683718,0.220491,20.7867,923.347,0.079419,0,0
208,51.75,49.8619,56.0562,171.253,98.4202,98.6975,0.007672451,0.220457,20.7866,923.307,-0.0257764,0,0
210,52.25,49.9783,56.0757,174.312,98.4193,97.5611,0.007663326,0.220429,20.787,923.257,0.0802309,0,0
212,52.75,49.8564,56.2433,172.308,98.4202,96.6943,0.007654933,0.220355,20.7873,923.177,0.162054,0,0
214,53.25,49.9856,56.3851,173.378,98.4189,97.5387,0.007647234,0.220249,20.7875,923.167,0.0822949,0,0
216,53.75,49.6021,56.8551,175.589,98.4197,97.9481,0.007646996,0.220126,20.7877,923.117,0.0440027,0,0
218,54.25,50.0474,56.2692,172.078,98.421,96.9617,0.007652203,0.219994,20.7881,923.097,0.136832,0,0
220,54.75,49.6745,56.2956,170.97,98.4239,97.9064,0.007656421,0.219887,20.7886,923.027,0.0482845,0,0
222,55.25,50.088,56.29,168.722,98.4197,97.5566,0.007694043,0.219712,20.789,922.997,0.0806899,0,0
224,55.75,49.9372,56.4815,171.32,98.4131,97.8079,0.007724517,0.219492,20.7894,922.966,0.05651,0,0
226,56.25,49.8997,56.8261,169.425,98.4189,98.0413,0.007749201,0.219218,20.7896,922.936,0.0352167,0,0
228,56.75,50.3682,56.4062,169.476,98.4259,97.2076,0.007828157,0.21891,20.7899,922.886,0.114089,0,0
230,57.25,49.9982,56.4098,172.711,98.4173,97.8424,0.007892112,0.218661,20.79,922.846,0.05366407,0,0
232,57.75,49.9796,56.3492,172.729,98.4168,98.0233,0.007980088,0.218237,20.7904,922.816,0.0366992,0,0
234,58.25,49.774,56.0169,167.64,98.4276,98.517,0.008051348,0.217893,20.7909,922.756,-0.008315766,0,0
236,58.75,49.7532,56.3738,173.527,98.4222,98.3611,0.008123104,0.21752,20.7916,922.726,0.005690615,0,0
238,59.25,49.677,56.5823,172.381,98.4152,98.185,0.008193858,0.217132,20.7923,922.686,0.0214461,0,0
240,59.75,50.1485,56.2253,171.618,98.4173,98.3548,0.008268321,0.216817,20.7929,922.656,0.005813928,0,0
242,60.25,49.8142,56.2946,174.371,98.4127,98.0027,0.008328635,0.216369,20.7933,922.606,0.0382402,0,0
244,60.75,49.6208,56.8841,173.605,98.4123,98.9309,0.008388923,0.216005,20.7937,922.576,-0.0481414,0,0
246,61.25,50.3129,56.6745,174.43,98.4119,97.8235,0.008437756,0.215652,20.794,922.526,0.0549265,0,0
248,61.75,50.4076,56.6198,170.766,98.4206,96.3001,0.008476307,0.215313,20.7938,922.476,0.19951,0,0
250,62.25,50.2532,56.3551,167.981,98.4251,96.2607,0.008506629,0.215017,20.7933,922.476,0.203683,0,0
252,62.75,50.2149,56.571,170.705,98.4086,98.6487,0.00853119,0.214758,20.7928,922.446,-0.0223201,0,0
254,63.25,49.9349,56.5784,171.367,98.4173,98.0103,0.008537742,0.214643,20.7922,922.416,0.0379509,0,0
256,63.75,50.375,56.383,172.389,98.4177,97.6578,0.008543049,0.214635,20.7915,922.396,0.0709963,0,0
258,64.25,50.2049,56.3431,173.951,98.4177,97.7313,0.008543534,0.214752,20.7909,922.336,0.064109,0,0
260,64.75,49.9678,56.8547,170.123,98.404,98.2307,0.008543927,0.21496,20.79,922.296,0.0161468,0,0
262,65.25,50.4563,56.3239,172.086,98.4102,97.6256,0.008544246,0.215303,20.7893,922.246,0.073331,0,0
264,65.75,50.2157,56.7027,172.473,98.4189,97.7801,0.008560669,0.215739,20.7885,922.186,0.0596491,0,0
266,66.25,50.4236,56.6372,172.857,98.4185,98.1756,0.008573971,0.216093,20.7876,922.146,0.0226313,0,0
268,66.75,50.3412,56.6455,174.093,98.4073,98.5609,0.008598091,0.216685,20.7868,922.086,-0.0142798,0,0
270,67.25,50.4282,56.9559,170.371,98.4214,98.0426,0.008617628,0.217165,20.786,922.056,0.0353222,0,0
272,67.75,50.5062,56.9598,173.879,98.4206,97.6211,0.00864108,0.217641,20.7853,922.066,0.0747121,0,0
274,68.25,50.5493,56.7517,171.497,98.4189,98.1165,0.008660075,0.218107,20.7848,922.036,0.0281881,0,0
276,68.75,50.3657,57.1299,170.269,98.4127,98.3835,0.008667835,0.218483,20.7843,921.976,0.002720758,0,0
278,69.25,50.7079,56.9604,170.58,98.4177,97.6874,0.008674121,0.219069,20.7836,921.945,0.0682242,0,0
280,69.75,50.595,56.8317,166.394,98.4107,97.7837,0.008679211,0.219542,20.7829,921.915,0.0585446,0,0
282,70.25,50.5543,57.1534,169.913,98.4152,97.6856,0.00864902,0.220136,20.7822,921.865,0.0681614,0,0
284,70.75,50.556,57.0048,174.463,98.4123,96.8717,0.008624564,0.220616,20.7814,921.805,0.144533,0,0
286,71.25,51.0606,57.0872,163.463,98.4144,97.3523,0.008589519,0.221257,20.7807,921.755,0.0993895,0,0
288,71.75,50.4528,56.8496,174.66,98.4168,98.1304,0.008561132,0.221775,20.7802,921.745,0.02669985,0,0
290,72.25,50.5293,57.5823,170.619,98.421,97.5628,0.008530119,0.222195,20.7798,921.695,0.0802158,0,0
292,72.75,51.1257,56.904,169.358,98.421,96.2566,0.008497778,0.222815,20.7794,921.635,0.203683,0,0
294,73.25,50.9463,57.3492,172.944,98.414,98.0977,0.008450639,0.223317,20.7789,921.605,0.0294834,0,0
296,73.75,50.8797,57.4062,173.559,98.414,97.3425,0.008412457,0.223934,20.7783,921.555,0.100278,0,0
298,74.25,51.0257,57.8396,169.181,98.4301,97.6878,0.008354881,0.224433,20.7778,921.525,0.0693351,0,0
300,74.75,51.1977,57.3843,169.995,98.4107,97.4571,0.008308245,0.224963,20.7771,921.495,0.0891859,0,0
302,75.25,50.9678,57.315,172.54,98.4222,97.798,0.008270469,0.225505,20.7764,921.445,0.0582777,0,0
304,75.75,50.9681,57.9281,169.113,98.4152,97.3066,0.008239871,0.226069,20.7758,921.395,0.103766,0,0
306,76.25,51.3633,57.6677,175.05,98.4193,97.9911,0.00818846,0.226639,20.7748,921.355,0.039944,0,0
308,76.75,50.9643,57.669,171.513,98.4065,97.3528,0.008146817,0.227293,20.7739,921.335,0.0986171,0,0
310,77.25,51.4246,58.173,174.716,98.4218,97.6524,0.008113086,0.227995,20.7732,921.255,0.0718848,0,0
312,77.75,51.5224,57.6891,173.098,98.4214,95.8356,0.008069646,0.228563,20.7721,921.215,0.243878,0,0
314,78.25,51.3935,57.8462,167.875,98.4214,97.7313,0.008034458,0.22932,20.7707,921.185,0.06445381,0,0
316,78.75,51.4299,57.935,171.521,98.4173,97.4397,0.008007857,0.230199,20.7696,921.145,0.0914435,0,0
318,79.25,51.7762,58.1006,168.614,98.4168,96.7064,0.00798631,0.230911,20.7687,921.105,0.1606,0,0
320,79.75,51.9934,57.8616,171.043,98.4115,97.2269,0.00798287,0.231642,20.7679,921.095,0.110929,0,0
322,80.25,51.227,58.3098,168.85,98.4148,97.3528,0.007992694,0.232374,20.7673,921.035,0.09938515,0,0
324,80.75,51.3265,58.2946,172.952,98.4214,98.259,0.008020682,0.232967,20.7668,920.964,0.0151297,0,0
326,81.25,51.8323,58.1277,169.729,98.4243,98.1618,0.008061381,0.233504,20.7665,920.884,0.0244654,0,0
328,81.75,51.5309,58.1704,170.567,98.4173,97.243,0.008094347,0.233938,20.7661,920.894,0.109949,0,0
330,82.25,51.9018,58.0347,168.978,98.4259,98.3736,0.008183899,0.23429,20.7659,920.854,0.004868843,0,0
332,82.75,51.7093,57.9816,174.082,98.4156,97.4661,0.008256437,0.234576,20.7657,920.834,0.0888052,0,0
334,83.25,51.726,58.5685,167.726,98.4226,97.669,0.00842183,0.234807,20.7659,920.804,0.0704079,0,0
336,83.75,51.832,58.5072,170.028,98.4148,98.0551,0.008466321,0.23498,20.7661,920.754,0.0335348,0,0
338,84.25,51.9714,58.125,170.658,98.4156,97.0083,0.008542402,0.23512,20.7662,920.714,0.131931,0,0
340,84.75,51.7052,58.3047,167.507,98.4197,96.8103,0.008682298,0.235064,20.7668,920.694,0.15103,0,0
342,85.25,51.5715,58.6461,168.265,98.4107,97.4674,0.008795613,0.235019,20.7677,920.654,0.088218,0,0
344,85.75,51.6525,58.629,173.189,98.4189,97.0822,0.008921803,0.234865,20.7687,920.654,0.125262,0,0
346,86.25,52.3193,58.4273,170.64,98.4197,97.7676,0.009024016,0.234534,20.7697,920.584,0.0609009,0,0
348,86.75,51.7959,58.0525,165.362,98.4135,97.7375,0.009112846,0.234445,20.7705,920.554,0.0631374,0,0
350,87.25,51.7985,58.3569,169.016,98.4061,99.0818,0.009190233,0.23404,20.7716,920.504,-0.0626844,0,0
352,87.75,51.6888,58.1383,172.703,98.4189,98.6321,0.009255935,0.233711,20.7725,920.464,-0.0198203,0,0
354,88.25,52.226,58.144,171.909,98.409,97.454,0.009311869,0.233038,20.7741,920.424,0.0893264,0,0
356,88.75,51.8365,58.2926,163.277,98.4156,96.9854,0.009367242,0.232493,20.7753,920.394,0.134089,0,0
358,89.25,51.9274,58.0377,176.845,98.4193,97.7304,0.009421155,0.231875,20.7768,920.364,0.0643465,0,0
360,89.75,52.0881,57.8641,178.387,98.4135,98.8529,0.009464825,0.231214,20.778,920.314,-0.0408061,0,0
362,90.25,51.8234,57.8998,173.71,98.4102,98.0587,0.009563359,0.230451,20.7792,920.294,0.0327776,0,0
364,90.75,51.6815,58.02,181.211,98.4185,97.5897,0.009643173,0.229627,20.7804,920.284,0.0774627,0,0
366,91.25,51.857,58.1884,169.475,98.4152,97.2376,0.009707822,0.228695,20.7813,920.244,0.110263,0,0
368,91.75,51.6021,58.1377,178.653,98.409,97.1118,0.009848356,0.227702,20.7828,920.234,0.121551,0,0
370,92.25,52.0387,57.6362,174.964,98.409,97.5714,0.00996219,0.226897,20.7846,920.164,0.07830181,0,0
372,92.75,52.3139,58.0887,173.874,98.4185,97.5763,0.0101177,0.225492,20.7867,920.164,0.078723,0,0
374,93.25,51.8287,57.6482,173.956,98.4078,97.1292,0.0102437,0.224354,20.7891,920.104,0.119787,0,0
376,93.75,51.9909,57.6533,174.99,98.4086,98.1743,0.0103977,0.222884,20.7927,920.084,0.0218339,0,0
378,94.25,51.4763,57.9826,177.941,98.4024,97.5951,0.0105223,0.221199,20.7957,920.094,0.0754583,0,0
380,94.75,52.0161,57.5672,178.415,98.4123,97.0907,0.0106733,0.219834,20.7987,920.054,0.123844,0,0
382,95.25,51.5859,57.3767,167.984,98.3999,97.6556,0.0107957,0.217607,20.8018,920.004,0.069554,0,0
384,95.75,51.4692,57.3403,176.94,98.4094,97.5221,0.010966,0.215803,20.8053,919.994,0.082968,0,0
386,96.25,51.274,57.5653,171.628,98.4065,97.7447,0.0111039,0.213308,20.8089,919.953,0.0618121,0,0
388,96.75,51.5345,57.3046,174.665,98.4111,97.2264,0.0113005,0.211286,20.8118,919.913,0.110933,0,0
390,97.25,51.2678,56.5237,183.536,98.4078,97.4925,0.0114597,0.208686,20.815,919.873,0.0855917,0,0
392,97.75,51.1865,57.017,175.263,98.4069,97.5646,0.01158868,0.20658,20.8177,919.883,0.0787414,0,0
394,98.25,51.4282,56.3886,178.181,98.4049,97.2923,0.01181,0.203888,20.8198,919.823,0.104155,0,0
396,98.75,50.756,55.9934,174.675,98.4098,98.3212,0.0119892,0.201708,20.822,919.793,0.008251493,0,0
398,99.25,50.5823,56.3245,175.774,98.4119,97.7098,0.0121344,0.19904,20.8241,919.773,0.0655857,0,0
400,99.75,51.063,56.0056,173.674,98.4193,97.3868,0.0123132,0.196879,20.8259,919.753,0.0966054,0,0
402,100.25,50.7244,55.5827,175.974,98.4065,97.6739,0.0125129,0.195129,20.828,919.763,0.0684475,0,0
404,100.75,50.4698,55.6348,172.328,98.4078,97.1552,0.0127125,0.192664,20.8297,919.753,0.117338,0,0
406,101.25,49.9569,55.6061,173.487,98.395,97.7048,0.0129082,0.190667,20.8319,919.723,0.0644722,0,0
408,101.75,50.1825,55.0523,179.216,98.4073,97.4504,0.0130963,0.18905,20.8337,919.693,0.0895103,0,0
410,102.25,49.9434,54.8596,172.958,98.3974,97.8625,0.0132753,0.187076,20.8361,919.693,0.0499322,0,0
412,102.75,50.3907,54.7717,175.687,98.4131,97.4809,0.0134398,0.18488,20.838,919.693,0.0871851,0,0
414,103.25,49.5939,54.8536,176.715,98.4115,97.1673,0.0135904,0.183101,20.8408,919.663,0.116544,0,0
416,103.75,49.7765,55.0202,169.6,98.4045,97.9615,0.0137248,0.180809,20.8431,919.653,0.0413247,0,0
418,104.25,49.8923,54.6505,181.811,98.3979,97.626,0.0138446,0.178953,20.8454,919.633,0.072135,0,0
420,104.75,49.9028,54.2015,179.37,98.409,97.9512,0.0139417,0.176735,20.8473,919.593,0.0427094,0,0
422,105.25,49.2769,54.0861,176.824,98.4016,98.2289,0.0140367,0.174598,20.8492,919.593,0.0160835,0,0
424,105.75,49.7855,54.029,177.195,98.3983,97.5902,0.01412844,0.172562,20.8512,919.593,0.0755363,0,0
426,106.25,49.6627,53.6759,177.323,98.4028,97.17,0.0142283,0.170574,20.8529,919.593,0.115483,0,0
428,106.75,49.1123,53.9885,176.616,98.4173,97.0853,0.0143323,0.168658,20.8546,919.573,0.124813,0,0
430,107.25,49.3294,53.5339,171.78,98.3879,97.2193,0.0144165,0.167106,20.856,919.523,0.109455,0,0
432,107.75,48.9431,53.0993,174.267,98.395,97.0576,0.0145802,0.165073,20.858,919.493,0.125358,0,0
434,108.25,48.6765,53.4371,178.819,98.3937,97.2179,0.0147128,0.163426,20.8597,919.483,0.110121,0,0
436,108.75,49.0956,53.1411,173.669,98.4086,96.8712,0.0149334,0.1616,20.8615,919.463,0.14423,0,0
438,109.25,49.3013,52.9343,179.234,98.3937,96.9268,0.0151121,0.159678,20.8633,919.453,0.137596,0,0
440,109.75,48.7381,52.7819,181.729,98.4069,97.0929,0.01536053,0.15775,20.865,919.453,0.123134,0,0
442,110.25,48.4652,52.9491,178.409,98.3962,97.2623,0.0155618,0.155854,20.8666,919.433,0.106173,0,0
444,110.75,48.6651,52.4919,177.084,98.4057,97.8258,0.0157774,0.154318,20.8679,919.423,0.0541395,0,0
446,111.25,48.8745,52.2659,177.103,98.3917,97.1485,0.0159993,0.152197,20.8703,919.393,0.116472,0,0
448,111.75,48.1999,51.7157,176.486,98.4057,96.9474,0.0161791,0.150479,20.8722,919.383,0.136763,0,0
450,112.25,47.9274,51.4652,180.185,98.3838,95.866,0.0163682,0.148412,20.8742,919.363,0.23747,0,0
452,112.75,47.9552,51.9083,178.309,98.4045,96.8869,0.01656031,0.146737,20.8762,919.363,0.142364,0,0
454,113.25,48.0482,51.8273,182.941,98.4049,97.4782,0.0167232,0.145033,20.8779,919.333,0.0866691,0,0
456,113.75,48.009,51.2444,184.683,98.4036,96.7324,0.0168616,0.143339,20.8797,919.303,0.156909,0,0
458,114.25,47.7027,50.8452,177.73,98.4032,96.8448,0.0169666,0.141967,20.8811,919.283,0.14623,0,0
460,114.75,47.739,50.8482,174.424,98.4065,97.6627,0.017045,0.140262,20.8827,919.263,0.0694977,0,0
462,115.25,47.7273,50.4752,176.679,98.4012,96.4537,0.01709,0.13888,20.884,919.163,0.183101,0,0
464,115.75,47.3672,50.4638,173.739,98.3974,96.4107,0.0171096,0.137477,20.885,919.253,0.18684,0,0
466,116.25,47.1402,50.1891,176.322,98.4082,97.0258,0.0170987,0.136084,20.8859,919.273,0.12959,0,0
468,116.75,47.2881,50.3276,181.677,98.4164,96.8641,0.0170657,0.134721,20.8866,919.243,0.145638,0,0
470,117.25,46.8067,50.1485,176.143,98.4061,97.0513,0.0169833,0.133405,20.8871,760.205,0.126987,0,0
472,117.75,47.1858,49.8533,175.411,98.4032,97.0535,0.01686641,0.132186,20.8876,172.141,0.126508,0,0
474,118.25,46.8338,49.997,173.723,98.4078,96.5236,0.0167717,0.131062,20.8882,6.90686,0.177082,0,0
476,118.75,47.1195,49.3529,179.267,98.4123,96.6871,0.016695,0.129979,20.8889,-0.850845,0.162001,0,0
478,119.25,46.6797,49.2955,175.054,98.4148,96.9357,0.016308,0.128947,20.8896,-0.960954,0.138709,0,0
480,119.75,46.5759,49.1132,178.394,98.4094,96.8891,0.0159944,0.127924,20.8903,56.6963,0.142612,0,0
482,120.25,46.1049,48.6523,174.543,98.3979,97.6126,0.0154164,0.126927,20.8908,140.469,0.0733971,0,0
484,120.75,46.3302,49.4221,176.29,98.402,97.8397,0.0149482,0.12612,20.8926,-0.930924,0.0524937,0,0
486,121.25,46.7374,49.0246,178.554,98.4012,96.8896,0.0143578,0.124915,20.894,-0.900895,0.141803,0,0
488,121.75,46.1634,48.8227,186.185,98.4045,97.682,0.0136897,0.123442,20.8952,-0.810805,0.067498,0,0
490,122.25,46.475,48.7596,176.471,98.3991,97.2703,0.01314858,0.122249,20.8996,-0.900895,0.105683,0,0
492,122.75,45.8221,48.1853,180.008,98.4057,97.7985,0.0127102,0.119691,20.9031,-0.910905,0.05669776,0,0
494,123.25,45.5362,48.4378,182.584,98.4028,97.6072,0.0118923,0.11762,20.9079,-0.870865,0.0743622,0,0
496,123.75,46.1265,47.9026,177.937,98.4094,97.4849,0.0111187,0.115265,20.9118,-0.910905,0.0864604,0,0
498,124.25,45.333,47.4076,179.628,98.4102,97.1861,0.0103921,0.112748,20.9158,-0.900895,0.114656,0,0
500,124.75,45.2053,47.6106,184.529,98.4111,97.0876,0.009803623,0.11071,20.9191,-0.900895,0.124025,0,0
502,125.25,45.5193,47.1978,183.961,98.4115,96.8896,0.009181043,0.109059,20.9235,-0.880875,0.142763,0,0
504,125.75,45.1906,47.0638,179.315,98.4098,97.4016,0.008676753,0.106169,20.927,-0.900895,0.0943318,0,0
506,126.25,44.6096,47.315,179.626,98.4168,97.5525,0.008268279,0.103827,20.9299,-0.890885,0.08079917,0,0
508,126.75,45.1347,46.7258,180.474,98.4045,98.3983,0.007810798,0.101054,20.9326,-0.900895,0.000575444,0,0
510,127.25,44.8941,46.622,178.589,98.4102,97.2797,0.00744024,0.0988076,20.9349,-0.890885,0.105835,0,0
512,127.75,44.3978,46.603,178.46,98.4086,96.7171,0.007083489,0.0963185,20.9375,-0.900895,0.158812,0,0
514,128.25,45.0003,46.2684,178.299,98.4131,97.2229,0.006794521,0.0943024,20.9397,-0.900895,0.111463,0,0
516,128.75,44.2771,46.0591,180.444,98.4024,97.1884,0.006516115,0.0922568,20.9415,-0.900895,0.113713,0,0
518,129.25,44.9038,46.2387,179.847,98.4098,97.4428,0.006290605,0.09022855,20.9429,-0.910905,0.0904575,0,0
520,129.75,44.4572,45.8427,175.62,98.4028,97.3465,0.006090992,0.08858569,20.9444,-0.910905,0.0988602,0,0
522,130.25,44.3417,45.7015,182.723,98.4061,97.574,0.005929306,0.0866136,20.9458,-0.890885,0.077781,0,0
524,130.75,44.2761,45.595,176.549,98.4045,97.901,0.005781386,0.0850163,20.947,-0.890885,0.0469799,0,0
526,131.25,43.8853,45.9002,178.792,98.404,97.3622,0.005661571,0.0832357,20.9484,-0.890885,0.0975011,0,0
528,131.75,44.2196,45.25,177.97,98.3958,97.4527,0.005552634,0.0817934,20.9496,-0.900895,0.0882234,0,0
530,132.25,43.5094,45.6692,180.637,98.4119,97.0714,0.005453696,0.0801522,20.9505,-0.920914,0.125623,0,0
532,132.75,44.3917,45.5632,177.546,98.4003,96.9984,0.005373555,0.0788229,20.9512,-0.930924,0.131439,0,0
534,133.25,43.8498,45.198,180.455,98.4045,97.0396,0.005287849,0.0774138,20.9518,-0.920914,0.127934,0,0
536,133.75,43.4438,45.3591,177.192,98.3937,97.712,0.005199714,0.0762724,20.9527,-0.890885,0.063685,0,0
538,134.25,44.1584,45.1964,174.85,98.4061,97.6892,0.005119417,0.0751194,20.9535,-0.900895,0.0669799,0,0
540,134.75,43.6037,45.4839,178.526,98.4057,97.4759,0.00504636,0.0739798,20.9541,-0.890885,0.0869569,0,0
542,135.25,43.8885,44.8568,174.168,98.395,96.9572,0.004977293,0.0730567,20.9546,-0.900895,0.134833,0,0
544,135.75,43.271,44.6776,181.652,98.4036,97.2883,0.004912446,0.071939,20.955,-0.890885,0.10442,0,0
546,136.25,43.384,44.8482,176.849,98.3875,97.51,0.004859921,0.0710336,20.9553,-0.900895,0.0820665,0,0
548,136.75,43.7076,44.6578,179.721,98.3929,97.7174,0.004791072,0.0701326,20.9558,-0.910905,0.06310375,0,0
550,137.25,43.8302,44.6694,182.104,98.397,97.088,0.004735305,0.0692517,20.9564,-0.900895,0.122676,0,0
552,137.75,42.9806,44.386,179.954,98.3904,97.4845,0.004660086,0.0685383,20.9569,-0.930924,0.0847349,0,0
554,138.25,43.0017,44.7384,179.131,98.3933,96.9227,0.004583355,0.0677438,20.9573,-0.930924,0.137939,0,0
556,138.75,43.1851,44.3531,178.018,98.3962,97.075,0.004506977,0.0671002,20.9576,-0.930924,0.123824,0,0
558,139.25,43.0766,44.7296,180.966,98.4053,97.1436,0.004445112,0.0663116,20.9579,-0.9409343,0.118205,0,0
560,139.75,43.1464,44.1655,174.896,98.3917,97.3734,0.004395001,0.0656728,20.9581,-0.950944,0.0952936,0,0
562,140.25,42.8312,44.3341,175.878,98.4049,97.7855,0.004313152,0.0649644,20.9582,-0.950944,0.0578383,0,0
564,140.75,43.1917,44.15,180.921,98.3933,97.6824,0.004246855,0.0643907,20.9584,-0.950944,0.0664184,0,0
566,141.25,43.0908,44.0658,184.683,98.4135,97.4966,0.004180032,0.06378597,20.9585,-0.950944,0.0857508,0,0
568,141.75,42.9891,44.1375,176.693,98.4016,96.9272,0.004125906,0.0632962,20.9586,-0.9409343,0.138284,0,0
570,142.25,42.8007,43.8383,176.022,98.3991,97.415,0.004085021,0.062799,20.9587,-0.9409343,0.0920684,0,0
572,142.75,42.8902,44.0813,175.556,98.397,97.4392,0.004054567,0.062306,20.9592,-0.930924,0.0896022,0,0
574,143.25,42.8835,43.7933,178.838,98.4115,97.2381,0.004034835,0.0619066,20.9595,-0.9409343,0.109874,0,0
576,143.75,42.5257,43.9346,177.493,98.3917,97.1315,0.004023295,0.0614179,20.9599,-0.9409343,0.118078,0,0
578,144.25,43.0013,43.6814,181.833,98.3987,97.3783,0.004017891,0.061022,20.9601,-0.9409343,0.09548489,0,0
580,144.75,42.6794,43.4783,178.954,98.402,97.5109,0.004017062,0.0606211,20.9603,-0.930924,0.0833272,0,0
582,145.25,42.4768,43.9649,175.078,98.409,96.9474,0.00401639,0.06022412,20.9605,-0.9409343,0.13707,0,0
584,145.75,42.8093,43.5412,175.363,98.3912,97.7685,0.004023743,0.0598624,20.9607,-0.930924,0.0581649,0,0
586,146.25,42.5019,43.7178,175.298,98.4078,98.0251,0.004036807,0.0595334,20.9609,-0.920914,0.0356866,0,0
588,146.75,42.8948,43.692,183.26,98.3962,96.7651,0.004047389,0.0592401,20.961,-0.930924,0.15312,0,0
590,147.25,42.5075,43.6199,174.443,98.4098,97.1807,0.004056947,0.0589785,20.9611,-0.930924,0.115124,0,0
592,147.75,42.4295,43.9404,176.482,98.4003,97.7031,0.004065577,0.0587666,20.9612,-0.930924,0.0651401,0,0
594,148.25,42.6717,43.5543,181.227,98.4082,98.1273,0.004067635,0.0585949,20.9613,-0.9409343,0.0261859,0,0
596,148.75,42.3884,43.4795,183.856,98.3945,97.7908,0.004064863,0.0583035,20.9614,-0.9409343,0.0563744,0,0
598,149.25,42.532,43.9272,178.902,98.3983,96.7171,0.004062617,0.0580674,20.9615,-0.9409343,0.157852,0,0
600,149.75,42.7688,43.5098,184.496,98.4057,97.0826,0.004030799,0.0578361,20.9615,-0.920914,0.12399,0,0
602,150.25,42.4647,43.6015,178.893,98.4061,96.9312,0.004005027,0.05761265,20.9615,-0.920914,0.138325,0,0
604,150.75,42.7392,43.2444,178.049,98.402,97.4285,0.003965408,0.0573916,20.9616,-0.9409343,0.0910738,0,0
606,151.25,42.4466,43.3278,176.968,98.404,97.1104,0.003933317,0.0571764,20.9616,-0.930924,0.121216,0,0
608,151.75,42.302,43.0022,181.033,98.3933,96.791,0.003904366,0.0570021,20.9616,-0.930924,0.150394,0,0
610,152.25,42.3856,43.5498,180.433,98.4168,97.5337,0.003878256,0.0568229,20.9616,-0.930924,0.0825665,0,0
612,152.75,42.2668,43.0021,179.328,98.4007,97.6233,0.003858092,0.0566777,20.9616,-0.930924,0.0726561,0,0
614,153.25,41.988,43.4371,176.674,98.4144,97.364,0.003842646,0.0564459,20.9616,-0.920914,0.098293,0,0
616,153.75,42.2425,42.8454,178.109,98.4012,97.1512,0.003830134,0.0562581,20.9617,-0.930924,0.117103,0,0
618,154.25,42.2135,43.1496,182.825,98.4115,97.506,0.003822959,0.0560793,20.9617,-0.930924,0.0846743,0,0
620,154.75,42.3745,42.8859,185.156,98.404,97.29,0.003819809,0.0559104,20.9617,-0.9409343,0.104289,0,0
622,155.25,41.8867,43.3769,179.774,98.4127,97.5261,0.003832053,0.0557737,20.9617,-0.950944,0.0828966,0,0
624,155.75,42.2051,43.2416,184.321,98.409,97.7452,0.003855287,0.0556375,20.9621,-0.950944,0.0619997,0,0
626,156.25,42.3907,42.7302,184.022,98.4214,97.4043,0.003894835,0.0555272,20.9625,-0.950944,0.0951542,0,0
628,156.75,42.1346,42.9277,178.122,98.4181,97.2036,0.003945527,0.0553844,20.9628,-0.930924,0.113739,0,0
630,157.25,41.9805,43.0142,181.021,98.4226,97.2018,0.004004366,0.0552207,20.963,-0.930924,0.11433,0,0
632,157.75,42.2122,42.5943,180.878,98.4214,96.3834,0.004068026,0.0550881,20.9632,-0.950944,0.191666,0,0
634,158.25,41.7723,43.0101,177.264,98.4251,97.536,0.004127495,0.054968,20.9633,-0.960954,0.0831238,0,0
636,158.75,42.3595,42.7979,183.027,98.409,96.7906,0.00418278,0.05487074,20.9635,-0.970964,0.151896,0,0
638,159.25,41.8601,42.6336,177.339,98.4197,97.6672,0.00422756,0.0547412,20.9636,-0.950944,0.0703072,0,0
640,159.75,42.4567,42.7125,182.329,98.4131,96.9196,0.004260075,0.0546363,20.9636,-0.950944,0.14008,0,0
642,160.25,41.7851,42.825,182.515,98.4255,97.5566,0.004286413,0.0545259,20.9637,-0.960954,0.0812278,0,0
644,160.75,42.2491,42.6951,182.054,98.4309,97.4966,0.004307746,0.0544366,20.9638,-0.950944,0.0873646,0,0
646,161.25,41.7196,43.0274,179.588,98.4243,98.3817,0.004268724,0.0543134,20.9638,-0.950944,0.003964046,0,0
648,161.75,42.0385,42.716,185.262,98.4189,97.8993,0.004237116,0.0542137,20.9638,-0.960954,0.0484931,0,0
650,162.25,41.7434,43.1045,181.053,98.4185,96.8363,0.004172144,0.0540695,20.9639,-0.970964,0.148458,0,0
652,162.75,41.796,42.6624,182.717,98.4193,97.019,0.004119516,0.05395275,20.9639,-0.960954,0.131262,0,0
654,163.25,41.814,42.9376,185.216,98.4226,96.8632,0.004062096,0.0538582,20.9639,-0.980974,0.146299,0,0
656,163.75,41.8743,42.5124,180.637,98.4251,97.4961,0.004002272,0.0537942,20.9639,-0.980974,0.0868692,0,0
658,164.25,41.5371,42.9044,178.978,98.4272,97.7577,0.00394987,0.0537424,20.9639,-1.00099,0.062516,0,0
660,164.75,42.0307,42.5392,179.835,98.4305,97.777,0.003903873,0.0536938,20.9639,-1.011,0.0610192,0,0
662,165.25,42.0637,42.4413,185.296,98.4173,96.6029,0.003867603,0.0536484,20.9639,-0.990984,0.170445,0,0
664,165.75,41.6417,42.6847,179.08,98.4156,97.3653,0.003839113,0.0536116,20.964,-0.980974,0.0982822,0,0
666,166.25,41.8672,42.324,184.931,98.4148,96.7659,0.003818007,0.0535818,20.964,-0.970964,0.1547665,0,0
668,166.75,42.0655,42.5846,178.319,98.4263,96.9931,0.003802684,0.0535444,20.964,-0.960954,0.134369,0,0
670,167.25,41.5629,43.055,180.811,98.4181,97.1216,0.003790273,0.053502,20.964,-0.970964,0.121466,0,0
672,167.75,41.8386,42.3944,188.21,98.4185,97.3617,0.003790081,0.0534677,20.964,-0.960954,0.0988883,0,0
674,168.25,41.561,42.3986,181.536,98.4226,97.3447,0.0037988,0.0533892,20.964,-0.970964,0.100875,0,0
676,168.75,41.3675,42.1215,179.097,98.4272,97.2547,0.003805862,0.0533256,20.964,-0.990984,0.109774,0,0
678,169.25,41.4562,42.9256,176.548,98.4131,97.0594,0.003830327,0.0532614,20.964,-0.960954,0.126881,0,0
680,169.75,41.592,42.4143,176.708,98.4189,97.1449,0.003867013,0.0532094,20.9644,-0.960954,0.119347,0,0
682,170.25,41.6928,42.7358,182.355,98.4173,96.593,0.003896728,0.05318,20.9648,-0.960954,0.171379,0,0
684,170.75,41.7001,42.3564,178.914,98.4107,97.6247,0.003933925,0.0531562,20.965,-0.950944,0.0734534,0,0
686,171.25,41.7528,42.8065,183.403,98.4181,97.2358,0.003949783,0.0531369,20.9652,-0.950944,0.110699,0,0
688,171.75,41.7786,42.7257,175.588,98.4218,96.8802,0.003972954,0.0531212,20.9654,-0.950944,0.144613,0,0
690,172.25,41.8776,42.2796,175.654,98.4135,97.5947,0.003988171,0.0530578,20.9655,-0.9409343,0.0765391,0,0
692,172.75,41.527,42.5596,182.019,98.4202,97.6766,0.003993586,0.0530065,20.9657,-0.930924,0.069463,0,0
694,173.25,41.5691,42.1753,181.605,98.4107,97.1449,0.003991753,0.0529776,20.9658,-0.9409343,0.118578,0,0
696,173.75,41.3022,42.8235,185.88,98.4156,97.1655,0.003990269,0.0529542,20.9659,-0.970964,0.117097,0,0
698,174.25,41.6867,42.439,176.237,98.4164,96.9407,0.003972197,0.0529442,20.966,-0.970964,0.138398,0,0
700,174.75,41.3247,42.8156,183.325,98.4148,97.3935,0.00395756,0.0529398,20.966,-0.970964,0.0955508,0,0
702,175.25,41.6167,42.7511,179.386,98.4082,97.3953,0.003945703,0.0529363,20.9661,-0.970964,0.09476731,0,0
704,175.75,41.8941,42.3372,176.103,98.4218,96.5796,0.003917356,0.0529207,20.9661,-0.970964,0.173076,0,0
706,176.25,41.523,42.8828,183.162,98.4107,97.6592,0.003894394,0.0529081,20.9661,-0.990984,0.0702172,0,0
708,176.75,41.5717,42.4534,180.771,98.416,97.3169,0.003866434,0.0528852,20.9662,-0.990984,0.102872,0,0
710,177.25,41.3165,42.914,172.147,98.4032,97.5494,0.003843786,0.0528667,20.9662,-0.970964,0.079825,0,0
712,177.75,41.6729,42.3232,181.8,98.4177,97.4002,0.003831058,0.0528383,20.9662,-0.960954,0.0951888,0,0
714,178.25,41.2807,42.4458,182.354,98.4065,97.2363,0.003820748,0.0528033,20.9662,-0.960954,0.109583,0,0
716,178.75,41.6214,42.5275,178.056,98.4032,96.7413,0.003818019,0.052775,20.9662,-0.950944,0.156023,0,0
718,179.25,41.5101,42.6523,181.723,98.395,97.1727,0.003815808,0.0528028,20.9662,-0.950944,0.114499,0,0
720,179.75,41.8757,42.4925,178.427,98.404,98.0323,0.003821512,0.05282525,20.9662,-0.9409343,0.0346706,0,0
722,180.25,41.3277,42.304,183.672,98.4094,97.9069,0.003826131,0.0528368,20.9662,-0.9409343,0.04689623,0,0
724,180.75,41.8061,42.4305,183.71,98.423,97.2896,0.003831746,0.0528401,20.9662,-0.960954,0.106099,0,0
726,181.25,41.5068,42.6611,185.053,98.3954,97.3864,0.003836294,0.0528161,20.9663,-0.960954,0.0944182,0,0
728,181.75,41.3927,42.3309,180.946,98.4107,97.4401,0.003839978,0.0527727,20.9663,-0.960954,0.0907862,0,0
730,182.25,41.4828,43.1105,181.56,98.4135,96.9599,0.003848419,0.0527509,20.9663,-0.950944,0.136309,0,0
732,182.75,41.2416,42.2576,174.419,98.4086,97.1906,0.003860166,0.0527452,20.9663,-0.950944,0.114079,0,0
734,183.25,41.0218,42.6303,179.126,98.3987,97.2076,0.003884681,0.0526899,20.9663,-0.970964,0.111552,0,0
736,183.75,41.247,42.5127,177.625,98.4173,97.5149,0.003904538,0.05264508,20.9661,-0.960954,0.0843714,0,0
738,184.25,41.9784,42.4017,181.417,98.3962,97.4034,0.003931479,0.0526088,20.966,-0.980974,0.0928942,0,0
740,184.75,41.1216,42.1285,180.274,98.4102,97.4598,0.003963072,0.052617,20.9659,-0.980974,0.088895,0,0
742,185.25,41.5942,42.3116,175.688,98.3974,96.8587,0.003988662,0.0526237,20.9658,-0.990984,0.144378,0,0
744,185.75,41.0621,42.5258,177.532,98.4016,97.2054,0.004020642,0.0526091,20.9657,-0.970964,0.112033,0,0
746,186.25,41.2855,42.3578,179.038,98.3958,96.615,0.004046546,0.0525792,20.9657,-0.970964,0.167298,0,0
748,186.75,41.6845,42.2495,176.468,98.4094,97.5413,0.004058151,0.0525617,20.9656,-1.011,0.0811585,0,0
750,187.25,40.9754,42.5717,188.042,98.4061,97.4401,0.00406755,0.0525536,20.9656,-0.980974,0.0903623,0,0
752,187.75,41.7753,42.3296,175.893,98.4168,96.6383,0.00406391,0.0525469,20.9655,-0.990984,0.167052,0,0
754,188.25,41.3861,42.4096,179.653,98.3867,97.2466,0.004060962,0.0525796,20.9655,-0.980974,0.106766,0,0
756,188.75,41.5215,42.2206,176.944,98.4082,97.411,0.004057587,0.0526061,20.9655,-0.980974,0.0932931,0,0
758,189.25,41.2805,42.3939,182.499,98.4069,97.5552,0.004053965,0.0526528,20.9655,-0.960954,0.07962472,0,0
760,189.75,41.3428,42.2506,177.247,98.4073,97.0437,0.004051032,0.0526907,20.9655,-0.9409343,0.127822,0,0
762,190.25,41.6774,42.1161,176.448,98.3871,97.5508,0.004058036,0.0526961,20.9655,-0.9409343,0.0782,0,0
764,190.75,41.0695,42.5895,178.702,98.404,97.5624,0.004063708,0.0527004,20.9655,-0.960954,0.0786818,0,0
766,191.25,41.7751,42.3904,182.068,98.3929,97.4361,0.004075805,0.0526972,20.9654,-0.970964,0.0895124,0,0
768,191.75,41.0845,42.5147,175.899,98.4036,97.514,0.004085604,0.0526887,20.9654,-0.960954,0.0831866,0,0
770,192.25,41.348,42.5861,181.266,98.3991,98.1385,0.004093541,0.0526817,20.9654,-0.950944,0.0242944,0,0
772,192.75,41.1011,42.1492,181.623,98.4086,97.0974,0.004098457,0.0526888,20.9654,-0.950944,0.122865,0,0
774,193.25,41.1312,42.5797,185.196,98.3958,96.8708,0.004101079,0.0526945,20.965,-0.950944,0.143081,0,0
776,193.75,41.0766,42.2755,178.214,98.4007,96.7521,0.004103202,0.0526738,20.9647,-0.9409343,0.154774,0,0
778,194.25,41.5685,42.3239,183.567,98.4111,96.7418,0.004103044,0.052657,20.9645,-0.9409343,0.156711,0,0
780,194.75,41.2243,42.4032,182.163,98.3983,97.4361,0.004102916,0.0526434,20.9645,-0.950944,0.090012,0,0
782,195.25,41.1735,42.0997,182.53,98.3954,97.3335,0.004099063,0.05263925,20.9644,-0.9409343,0.0993916,0,0
784,195.75,41.5249,42.3701,177.135,98.414,97.4612,0.004095942,0.0526421,20.9644,-0.9409343,0.0891145,0,0
786,196.25,41.0692,42.2726,177.202,98.397,96.6728,0.004093414,0.0526444,20.9643,-0.950944,0.161938,0,0
788,196.75,41.4428,42.2622,178.769,98.4032,97.4383,0.004072614,0.052697,20.9643,-0.950944,0.0902628,0,0
790,197.25,41.0673,42.7549,180.141,98.4115,96.8018,0.004055766,0.0527396,20.9643,-0.930924,0.151067,0,0
792,197.75,41.2796,42.0778,182.479,98.4107,96.9097,0.004036494,0.0527607,20.9643,-0.950944,0.140781,0,0
794,198.25,41.2122,42.7383,179.707,98.4024,97.054,0.004020884,0.0527658,20.9643,-0.950944,0.126388,0,0
796,198.75,40.9751,42.0583,179.766,98.4007,97.1476,0.004026994,0.05277,20.9642,-0.950944,0.117403,0,0
798,199.25,41.125,42.1822,177.961,98.4003,97.3769,0.004031944,0.0527226,20.9642,-0.9409343,0.0957648,0,0
800,199.75,41.0532,42.3632,180.942,98.4073,97.2273,0.004047796,0.0526843,20.9642,-0.930924,0.110503,0,0
802,200.25,41.1393,42.1569,184.016,98.4036,97.0903,0.004071296,0.0526466,20.9642,-0.930924,0.123079,0,0
804,200.75,40.847,42.5774,175.814,98.4032,97.36306,0.004093294,0.05261,20.9642,-0.930924,0.0973402,0,0
806,201.25,40.6921,41.8882,178.745,98.4045,97.5131,0.004113778,0.0526071,20.9642,-0.920914,0.0833478,0,0
808,201.75,40.5565,42.2081,180.069,98.4049,97.2681,0.004130371,0.0526287,20.9642,-0.930924,0.106433,0,0
810,202.25,40.5412,42.0131,177.641,98.4012,97.4182,0.004128808,0.0526396,20.9642,-0.9409343,0.0919657,0,0
812,202.75,40.7812,41.7853,178.941,98.4045,97.6256,0.004127542,0.0526423,20.9642,-0.950944,0.0727926,0,0
814,203.25,41.0241,42.2534,178.684,98.402,97.557,0.00410434,0.0526446,20.9642,-0.950944,0.0789947,0,0
816,203.75,40.902,42.1741,177.823,98.4082,97.5673,0.004065589,0.0526464,20.964,-0.950944,0.0786039,0,0
818,204.25,41.0279,41.9634,182.181,98.4135,97.2699,0.004034201,0.0526613,20.9639,-0.950944,0.107071,0,0
820,204.75,40.5582,41.989,176.215,98.3987,97.4988,0.003986291,0.0526853,20.9638,-0.950944,0.0841571,0,0
822,205.25,41.28,41.8741,180.449,98.4131,97.5163,0.003947485,0.0527047,20.9637,-0.960954,0.08386068,0,0
824,205.75,40.7687,42.4125,177.89,98.4024,97.0092,0.003915064,0.05268025,20.9636,-0.950944,0.130617,0,0
826,206.25,40.9561,42.3895,179.156,98.4057,97.2927,0.003887914,0.0526242,20.9636,-0.950944,0.10419,0,0
828,206.75,41.1697,42.1583,181.952,98.4045,97.1807,0.00386395,0.0525788,20.9635,-0.9409343,0.114623,0,0
830,207.25,40.5947,42.2889,182.288,98.4061,97.5015,0.003842763,0.0525801,20.9635,-0.950944,0.0845953,0,0
832,207.75,41.3306,42.0161,176.87,98.4127,97.385,0.003824617,0.05258109,20.9635,-0.950944,0.0961592,0,0
834,208.25,40.6199,42.5561,178.918,98.4032,97.7658,0.003816414,0.0525819,20.9635,-0.960954,0.05953192,0,0
836,208.75,41.3056,42.0779,183.236,98.3983,97.2681,0.003802387,0.0525826,20.9634,-0.930924,0.105817,0,0
838,209.25,40.6492,42.4256,179.865,98.4127,97.3707,0.003791025,0.0525831,20.9634,-0.930924,0.0975076,0,0
840,209.75,40.9947,42.1327,178.287,98.4073,96.9048,0.003781823,0.05258356,20.9634,-0.920914,0.140939,0,0
842,210.25,40.9085,42.0344,180.487,98.4086,97.0047,0.003769442,0.0525772,20.9634,-0.910905,0.131616,0,0
844,210.75,40.6021,42.0679,179.201,98.4123,97.1722,0.00375498,0.0525661,20.9634,-0.930924,0.116156,0,0
846,211.25,40.9625,42.236,179.708,98.4177,96.9998,0.003741292,0.05256138,20.9634,-0.930924,0.132927,0,0
848,211.75,40.6565,42.3248,180.985,98.4156,97.4065,0.003728427,0.0525659,20.9629,-0.930924,0.0944064,0,0
850,212.25,40.7506,41.9725,178.5,98.4177,97.8979,0.003718007,0.0525696,20.9626,-0.960954,0.0485039,0,0
852,212.75,40.7557,41.9061,179.993,98.4086,97.7398,0.00372356,0.052606,20.9623,-0.970964,0.062465,0,0
854,213.25,40.6939,41.9022,185.7612,98.4107,97.3012,0.003728058,0.0526655,20.962,-0.970964,0.10385,0,0
856,213.75,40.9214,41.866,178.286,98.4119,96.8502,0.003756053,0.0527136,20.9619,-0.970964,0.146529,0,0
858,214.25,40.93,42.0528,180.579,98.4181,96.8909,0.003778729,0.0527526,20.9619,-0.960954,0.143251,0,0
860,214.75,40.5796,42.0607,177.738,98.404,97.3241,0.003827092,0.0527842,20.9619,-0.950944,0.101084,0,0
862,215.25,40.8609,41.897,179.437,98.4239,96.9854,0.003866267,0.0527972,20.9619,-0.960954,0.134857,0,0
864,215.75,40.9431,41.9121,180.579,98.4036,97.7859,0.003897998,0.0528076,20.9619,-0.980974,0.05768092,0,0
866,216.25,40.9663,42.1241,177.7,98.4189,97.11,0.003926664,0.0528799,20.9619,-0.990984,0.122642,0,0
868,216.75,40.6129,41.8244,179.249,98.4181,97.2323,0.00395255,0.0529384,20.962,-0.990984,0.111037,0,0
870,217.25,40.8959,41.8665,174.886,98.4247,96.7986,0.003973518,0.0529792,20.9621,-0.990984,0.152594,0,0
872,217.75,40.4216,42.2743,182.087,98.4111,96.6665,0.003975698,0.0530062,20.9621,-0.990984,0.163839,0,0
874,218.25,40.6443,42.0186,180.801,98.4218,97.2479,0.003964141,0.053028,20.9622,-0.970964,0.109907,0,0
876,218.75,41.1301,42.1431,179.915,98.4164,97.4706,0.003940973,0.0530457,20.9622,-0.970964,0.08846131,0,0
878,219.25,40.4782,42.3385,177.187,98.4292,97.3021,0.003909779,0.0531108,20.9622,-0.980974,0.105495,0,0
880,219.75,40.5024,41.9439,181.116,98.428,97.3438,0.003876624,0.0531635,20.9622,-0.990984,0.101458,0,0
882,220.25,40.7219,41.8768,178.806,98.4317,97.179,0.003842668,0.0532442,20.9623,-0.990984,0.117329,0,0
884,220.75,40.949,42.0353,182.721,98.4235,97.5418,0.003819109,0.0533096,20.9623,-0.990984,0.0824237,0,0
886,221.25,40.7727,42.0906,176.464,98.4288,96.7023,0.003803577,0.0533692,20.9623,-0.980974,0.162096,0,0
888,221.75,40.847,42.4191,178.59,98.4222,97.6686,0.003790996,0.0534235,20.9623,-0.990984,0.0704112,0,0
890,222.25,41.0504,41.9615,178.811,98.4391,96.8806,0.003801414,0.0534675,20.9623,-0.990984,0.146184,0,0
892,222.75,41.0105,42.0053,183.297,98.423,97.6408,0.003809852,0.0535032,20.9623,-0.990984,0.0730938,0,0
894,223.25,40.8111,42.2462,186.273,98.4396,97.4276,0.00382162,0.05353203,20.9623,-0.980974,0.094656,0,0
896,223.75,40.8131,41.965,179.537,98.4181,96.895,,0.0535808,,-0.970964,0.142869,0,0
898,224.25,40.4372,42.3387,179.63,98.4437,97.1897,,0.0536203,,-0.970964,0.11743,0,0
900,224.75,40.9251,42.1987,179.172,98.4222,96.8564,,0.0536903,,-0.960954,0.146896,0,0
902,225.25,40.6431,42.5945,185.559,98.4408,97.7998,,0.053747,,-0.960954,0.0598389,0,0
904,225.75,40.635,42.0764,176.036,98.4301,97.4495,,0.0538183,,-0.9409343,0.09170837,0,0
906,226.25,40.7235,42.3369,180.676,98.4412,97.6108,,0.0538761,,-0.9409343,0.0776002,0,0
908,226.75,40.8008,42.0913,178.986,98.4338,97.3469,,,,-0.9409343,0.101702,0,0
910,227.25,40.8594,41.8101,182.892,98.4495,98.2818,,,,-0.960954,0.0156137,0,0
912,227.75,40.3748,42.2459,179.973,98.4371,97.2757,,,,-0.990984,0.108713,0,0
914,228.25,40.4725,42.0861,179.883,98.4478,96.8712,,,,-1.00099,0.147881,0,0
916,228.75,40.5684,42.4681,186.038,98.4482,97.0553,,,,-1.00099,0.130528,0,0
918,229.25,40.7333,42.2644,179.018,98.4408,97.4509,,,,-0.990984,0.0925808,0,0
920,229.75,41.0119,42.124,174.155,98.4396,97.5991,,,,-0.990984,0.07853999,0,0
922,230.25,41.2574,42.1455,180.843,98.4404,97.0625,,,,-0.990984,0.129121,0,0
924,230.75,40.6047,42.0613,177.852,98.4391,97.2829,,,,-1.011,0.108231,0,0
926,231.25,40.5333,41.7722,184.454,98.4474,96.6311,,,,-1.00099,0.170574,0,0
928,231.75,40.634,42.2718,179.73,98.4358,96.636,,,,-0.990984,0.169032,0,0
930,232.25,40.4348,42.3469,179.953,98.4474,97.0723,,,,-0.980974,0.128844,0,0
932,232.75,40.2876,41.8603,175.401,98.4433,96.9008,,,,-0.980974,0.144663,0,0
934,233.25,41.2263,41.9331,176.162,98.4503,96.7077,,,,-0.960954,0.163585,0,0
936,233.75,40.6842,42.4102,177.653,98.4317,96.8251,,,,-0.980974,0.150747,0,0
938,234.25,40.7921,42.0598,173.766,98.4466,97.2,,,,-0.970964,0.116728,0,0
939,234.5,41.0209,42.1254,183.074,98.4168,96.8246,,,,-0.960954,0.149405,0,0