File: 01_Data/Straw/Cone/Straw_Cone_HF35Scan_181019_R3.csv
Names,Time,Stack TC,Smoke TC,Exh Press,Smoke Comp,Smoke Meas,CO Meter,CO2 Meter,O2 Meter,Sample Mass,Ext Coeff,Start Test,Flame Verif
Chan Gain,,500,500,1,1,1,1,1,1,1,1,1,1
Offset,,0,0,0.126212,0,0,0,0,0,0,0,0,0
Gain,,1,1,25.011,13.7876,15.8843,1,1,1,1.00085,1.0195,1,1
Units,sec,C,C,Pa,%,%,%,%,%,g,/m,,
Baseline,,34.8727,36.4864,169.99,98.3913,100.301,0.003446453,0.0637158,20.9119,-0.141704,-0.171884,,
2,0.25,33.0752,34.1183,172.417,97.9128,100.546,0.003686491,0.0718259,20.9004,930.631,-0.237297,0,0
4,0.75,32.9257,34.2391,172.234,97.9284,100.49,0.003686266,0.0714396,20.9005,930.101,-0.230959,0,0
6,1.25,33.2012,34.1678,169.733,97.9439,99.9906,0.003685882,0.0710843,20.9006,930.971,-0.18495,0,0
8,1.75,32.7706,34.52528,170.307,97.9494,99.2722,0.003684569,0.0708369,20.9007,930.891,-0.119966,0,0
10,2.25,33.48,34.4419,169.935,97.9599,100.027,0.003682604,0.0706729,20.9008,930.901,-0.186741,0,0
12,2.75,33.7338,34.6375,171.12,97.9696,99.9795,0.003681012,0.0705401,20.9008,930.641,-0.18161,0,0
14,3.25,33.3359,34.9588,167.932,97.9839,99.9766,0.003679723,0.0705911,20.9009,930.911,-0.180044,0,0
16,3.75,33.6155,35.203,169.246,97.9919,99.7846,0.003688692,0.070637,20.9009,930.551,-0.162126,0,0
18,4.25,33.6389,35.0021,167.815,98.0054,99.6377,0.003704968,0.0707154,20.9009,930.621,-0.147724,0,0
20,4.75,34.3162,34.8885,166.612,98.0171,100.255,0.003718152,0.0708558,20.901,930.711,-0.201865,0,0
22,5.25,33.7388,35.6023,171.294,98.0348,99.0987,0.003774512,0.0709696,20.9007,930.721,-0.096524,0,0
24,5.75,33.9709,35.2972,168.863,98.0596,99.3648,0.003820164,0.0710232,20.9004,930.481,-0.118244,0,0
26,6.25,34.1138,35.5971,167.668,98.0668,99.6101,0.003918112,0.0710667,20.9001,930.531,-0.13964,0,0
28,6.75,33.9622,35.92,167.286,98.0895,99.2717,0.00399745,0.0710763,20.8998,930.661,-0.107139,0,0
30,7.25,34.1152,35.6046,167.317,98.0895,99.2291,0.004061713,0.0710841,20.8996,930.601,-0.103295,0,0
32,7.75,34.5441,35.3589,173.681,98.1135,98.7109,0.004226366,0.0709624,20.8997,930.491,-0.0542841,0,0
34,8.25,34.3896,35.6576,167.4,98.1135,98.6202,0.004359734,0.0708637,20.8999,930.531,-0.0460677,0,0
36,8.75,34.0714,35.9162,171.603,98.1244,98.7593,0.004557625,0.070707,20.9002,930.491,-0.0576778,0,0
38,9.25,34.2274,35.8509,171.423,98.1303,97.942,0.004717918,0.07058005,20.9003,930.521,0.0171751,0,0
40,9.75,34.5296,35.709,173.532,98.1509,98.1781,0.00491681,0.0704772,20.9005,930.471,-0.002475787,0,0
42,10.25,34.1983,36.1406,167.546,98.1669,98.0889,0.005140064,0.07043235,20.9006,930.511,0.007109011,0,0
44,10.75,34.1903,36.0578,163.457,98.1758,97.2421,0.005388626,0.070396,20.9007,930.461,0.0854591,0,0
46,11.25,34.4009,35.9617,171.164,98.2006,97.2314,0.005650915,0.0705074,20.9009,930.431,0.0887013,0,0
48,11.75,34.6781,36.2188,165.8,98.209,97.1795,0.005948507,0.0705977,20.9011,930.411,0.0942391,0,0
50,12.25,34.3124,36.5868,166.431,98.2242,95.6754,0.006266182,0.0707382,20.9012,930.411,0.235124,0,0
52,12.75,34.8585,36.0255,171.734,98.2393,96.3002,0.00660889,0.0709127,20.9014,930.361,0.178286,0,0
54,13.25,34.5445,36.4589,170.169,98.2578,96.2929,0.006963336,0.0711622,20.9015,930.321,0.180648,0,0
56,13.75,34.3852,36.3576,171.482,98.2692,94.7655,0.007250438,0.0714617,20.9016,930.301,0.324677,0,0
58,14.25,34.7655,36.5119,170.142,98.2944,94.1537,0.00748299,0.0718527,20.9016,930.311,0.384892,0,0
60,14.75,34.7855,36.4236,165.521,98.3138,94.5216,0.007813218,0.0723031,20.9017,930.301,0.351775,0,0
62,15.25,34.8857,36.6487,169.04,98.339,94.3176,0.008208376,0.0728368,20.9015,930.271,0.3734,0,0
64,15.75,34.8277,36.7295,172.856,98.3533,94.8382,0.008545854,0.073421,20.9013,930.241,0.325472,0,0
66,16.25,35.0879,36.4834,172.757,98.3798,93.0175,0.008834871,0.07389421,20.9012,930.271,0.50124,0,0
68,16.75,34.5609,36.8228,175.664,98.3988,93.1105,0.009068976,0.0742775,20.901,930.221,0.494018,0,0
70,17.25,34.521,36.9521,173.004,98.4253,93.7824,0.009175027,0.0786783,20.8991,930.211,0.432128,0,0
72,17.75,34.9148,36.4842,169.362,98.4388,93.0301,0.009260928,0.082243,20.8959,930.201,0.505382,0,0
74,18.25,34.941,36.6476,179.707,98.4573,97.4912,0.009169553,0.0851303,20.8819,930.121,0.0881777,0,0
76,18.75,34.6246,37.1378,155.797,98.4834,101.399,0.00909554,0.100257,20.8603,930.081,-0.2609,0,1
78,19.25,35.383,36.9245,161.452,98.5019,100.703,0.008877032,0.112509,20.8383,929.821,-0.197614,0,1
80,19.75,35.3159,37.9391,155.779,98.5212,101.965,0.008700039,0.131363,20.8163,930.291,-0.307216,0,1
82,20.25,35.8665,39.0549,158.409,98.5456,102.296,0.008482588,0.146634,20.7962,929.51,-0.334035,0,1
84,20.75,36.2051,39.9979,162.286,98.5654,101.804,0.008239772,0.164711,20.7779,930.031,-0.289081,0,1
86,21.25,36.624,40.3062,151.144,98.5923,103.406,0.008043091,0.179354,20.763,930.261,-0.426279,0,1
88,21.75,37.433,41.0977,158.99,98.6096,101.292,0.007781805,0.192707,20.7506,929.801,-0.240035,0,1
90,22.25,37.7065,41.5298,155.175,98.642,100.992,0.007570163,0.204865,20.7401,929.43,-0.210523,0,1
92,22.75,38.1091,42.0846,159.281,98.6508,102.045,0.007386595,0.215602,20.7315,929.66,-0.302473,0,1
94,23.25,39.0164,42.5461,161.803,98.6895,101.526,0.007226982,0.224299,20.7246,929.811,-0.2533921,0,1
96,23.75,39.0623,43.0075,164.034,98.7135,101.078,0.007097695,0.231343,20.719,929.49,-0.211677,0,0
98,24.25,39.0833,44.0606,159.998,98.7295,101.561,0.006992973,0.237121,20.7145,929.38,-0.252887,0,0
100,24.75,39.7918,44.1194,159.685,98.7467,100.884,0.006913205,0.241801,20.7108,929.53,-0.191452,0,0
102,25.25,39.8592,44.382,163.78,98.7674,100.256,0.006853145,0.245411,20.7083,929.51,-0.133763,0,0
104,25.75,40.2764,44.7356,159.868,98.78,100.689,0.006804496,0.248171,20.7063,929.32,-0.171193,0,0
106,26.25,40.4667,45.1113,159.418,98.8065,101.351,0.006778542,0.250256,20.7046,929.32,-0.227413,0,0
108,26.75,40.3697,45.7532,160.147,98.8271,101.722,0.006757521,0.251809,20.7032,929.35,-0.258167,0,0
110,27.25,41.0496,45.6359,160.346,98.8439,100.975,0.006746259,0.253105,20.7022,929.27,-0.190728,0,0
112,27.75,40.7022,46.5001,163.301,98.8595,102.155,0.006737136,0.254189,20.7013,929.13,-0.293255,0,0
114,28.25,40.7752,46.7329,160.546,98.8827,101.462,0.006729747,0.255308,20.7006,929.13,-0.230312,0,0
116,28.75,41.418,46.6138,161.502,98.902,102.162,0.006698776,0.256432,20.7,929.16,-0.290048,0,0
118,29.25,41.6973,47.1894,159.493,98.9201,101.306,0.006673689,0.257343,20.6995,929.06,-0.213115,0,0
120,29.75,41.224,47.6008,159.674,98.9285,101.226,0.006637999,0.259217,20.6982,928.97,-0.205334,0,0
122,30.25,42.0925,47.5224,159.874,98.9592,101.458,0.00660909,0.260735,20.6963,928.92,-0.223005,0,0
124,30.75,41.9046,47.8186,156.94,98.9685,103.036,0.006586686,0.26265,20.6948,928.9,-0.360179,0,0
126,31.25,42.3579,47.9253,158.22,98.995,102.056,0.006569448,0.264817,20.6927,928.82,-0.272345,0,0
128,31.75,42.0086,48.6646,164.73,99.0068,100.93,0.006568633,0.266572,20.691,928.77,-0.172057,0,0
130,32.25,42.5085,48.7242,156.356,99.0181,101.44,0.006579806,0.268429,20.6897,928.75,-0.216059,0,0
132,32.75,42.8112,48.7476,162.174,99.0371,102.976,0.006594926,0.269933,20.6885,928.69,-0.348806,0,0
134,33.25,43.0232,49.233,160.385,99.0648,103.089,0.006612637,0.271029,20.6876,928.65,-0.35606,0,0
136,33.75,43.1877,49.386,165.571,99.0737,101.991,0.006621922,0.271807,20.6869,928.599,-0.259503,0,0
138,34.25,43.3472,49.6938,158.971,99.0872,102.111,0.006624889,0.272437,20.6868,928.589,-0.268866,0,0
140,34.75,43.5612,49.703,161.983,99.1048,102.238,0.006627291,0.27273,20.6866,928.519,-0.278388,0,0
142,35.25,43.8388,49.8812,157.562,99.1128,102.41,0.006597899,0.272968,20.6865,928.459,-0.292621,0,0
144,35.75,43.7261,50.1489,164.253,99.1318,100.629,0.006545887,0.273116,20.6864,928.439,-0.134063,0,0
146,36.25,43.5326,50.6812,160.83,99.1503,102.049,0.006503758,0.273237,20.6864,928.409,-0.257694,0,0
148,36.75,43.7839,50.4504,157.848,99.162,101.703,0.006402477,0.273465,20.6863,928.329,-0.226248,0,0
150,37.25,43.6815,50.9404,162.878,99.181,101.334,0.006320439,0.27365,20.6863,928.299,-0.192087,0,0
152,37.75,43.8914,50.9804,163.633,99.1991,102.532,0.006253989,0.273868,20.6862,928.259,-0.295503,0,0
154,38.25,44.2147,51.1781,160.255,99.2205,101.526,0.006190073,0.274106,20.6862,928.209,-0.205446,0,0
156,38.75,44.6127,50.9835,162.997,99.2424,102.532,0.006129219,0.2743,20.6858,928.169,-0.291597,0,0
158,39.25,44.543,51.4531,161.088,99.2529,101.608,0.006098091,0.274195,20.6855,928.109,-0.209739,0,0
160,39.75,44.4742,51.7188,156.449,99.2681,101.096,0.006089225,0.274111,20.6853,928.089,-0.163207,0,0
162,40.25,44.4236,51.63097,159.873,99.2794,101.25,0.006115747,0.274042,20.6851,928.019,-0.17581,0,0
164,40.75,44.7498,51.5007,162.587,99.2967,100.729,0.006161098,0.273371,20.6863,927.979,-0.128066,0,0
166,41.25,45.0699,51.7827,165.109,99.2988,101.934,0.006238286,0.272272,20.6872,927.939,-0.234276,0,0
168,41.75,44.7638,52.1224,154.979,99.3089,101.747,0.006337216,0.271071,20.6888,927.889,-0.216935,0,0
170,42.25,45.0775,51.894,160.829,99.3245,101.397,0.006379392,0.269818,20.6894,927.839,-0.184718,0,0
172,42.75,45.1727,51.8037,161.631,99.3253,102.766,0.006451511,0.268576,20.6906,927.809,-0.304571,0,0
174,43.25,44.69,52.3632,161.77,99.3447,101.007,0.006614864,0.26794,20.6919,927.769,-0.148373,0,0
176,43.75,45.0433,52.0601,162.982,99.348,102.076,0.006747179,0.266631,20.6933,927.699,-0.24221,0,0
178,44.25,44.9113,52.2718,157.455,99.3695,102.714,0.006917967,0.265374,20.6947,927.649,-0.296078,0,0
180,44.75,45.0017,52.2805,158.686,99.3745,103.16,0.007056304,0.264356,20.696,927.609,-0.334328,0,0
182,45.25,45.4052,52.0888,162.499,99.3787,100.802,0.007206943,0.26368,20.6971,927.579,-0.127133,0,0
184,45.75,45.2048,52.3379,160.374,99.3909,104.837,0.00732896,0.262524,20.6979,927.509,-0.477041,0,0
186,46.25,45.3896,52.4237,161.695,99.3893,102.777,0.007427793,0.261587,20.6988,927.509,-0.299742,0,0
188,46.75,45.409,52.3873,158.695,99.3956,103.013,0.007507849,0.260356,20.6998,927.469,-0.31965,0,0
190,47.25,45.6491,52.3612,160.216,99.4124,102.868,0.0075534,0.259359,20.7006,927.408,-0.305587,0,0
192,47.75,45.5275,52.466,161.405,99.4217,102.479,0.007572931,0.258109,20.7021,927.378,-0.270849,0,0
194,48.25,45.4128,52.594,161.224,99.4267,102.643,0.007571497,0.257096,20.7033,927.338,-0.284724,0,0
196,48.75,45.3415,52.7306,157.081,99.4296,103.029,0.007554805,0.255747,20.7051,927.298,-0.318015,0,0
198,49.25,45.7323,52.5162,163.123,99.457,101.994,0.007541285,0.254655,20.7066,927.278,-0.225268,0,0
200,49.75,45.6242,52.5605,158.797,99.4566,102.793,0.007517149,0.253486,20.708,927.208,-0.295121,0,0
202,50.25,45.7472,52.9397,163.087,99.4679,101.201,0.007485732,0.252283,20.7094,927.168,-0.154433,0,0
204,50.75,45.9116,52.5063,161.715,99.4772,102.017,0.007463329,0.251308,20.7105,927.118,-0.22545,0,0
206,51.25,45.9796,52.5936,162.398,99.4772,103.156,0.007447922,0.250177,20.7114,927.088,-0.324757,0,0
208,51.75,45.7127,52.8108,159.028,99.4856,101.97,0.007435442,0.249262,20.7122,927.038,-0.22057,0,0
210,52.25,45.6055,52.9057,162.155,99.5067,102.134,0.007441679,0.248193,20.7132,926.988,-0.233037,0,0
212,52.75,45.7334,52.908,162.55,99.5117,102.354,0.007446731,0.247328,20.714,926.978,-0.251875,0,0
214,53.25,45.9971,52.4545,164.413,99.5226,101.016,0.007462388,0.246448,20.7153,926.928,-0.133182,0,0
216,53.75,45.8583,53.0366,156.038,99.5369,103.386,0.007479129,0.245574,20.7163,926.888,-0.339327,0,0
218,54.25,45.5316,52.9962,157.533,99.5344,102.398,0.007496343,0.244844,20.7171,926.848,-0.253644,0,0
220,54.75,45.9307,52.6742,160.089,99.5521,101.877,0.007510285,0.244232,20.7178,926.848,-0.206472,0,0
222,55.25,45.8111,52.8951,163.896,99.5508,103.237,0.007521579,0.243737,20.7183,926.788,-0.325113,0,0
224,55.75,46.0405,52.6932,154.454,99.5508,102.419,0.007530727,0.243351,20.7188,926.728,-0.254033,0,0
226,56.25,45.8024,53.1028,156.769,99.5706,103.123,0.00753002,0.243038,20.7192,926.688,-0.313463,0,0
228,56.75,46.2195,52.5824,159.193,99.5769,103.068,0.00752214,0.242728,20.7199,926.608,-0.308145,0,0
230,57.25,45.7308,53.0287,166.728,99.5832,104.181,0.007515758,0.242477,20.7205,926.538,-0.403673,0,0
232,57.75,46.06,52.9079,161.112,99.5845,102.376,0.007495169,0.242075,20.7209,926.498,-0.247241,0,0
234,58.25,45.8994,52.8852,161.462,99.5933,102.6,0.007478492,0.24175,20.7213,926.438,-0.265948,0,0
236,58.75,46.104,52.8584,159.735,99.6102,103.209,0.007455352,0.241263,20.7221,926.368,-0.317433,0,0
238,59.25,46.406,52.4582,165.426,99.6106,102.356,0.007436608,0.240668,20.7231,926.348,-0.243163,0,0
240,59.75,46.0162,52.884,157.321,99.6228,102.763,0.007421426,0.240186,20.724,926.378,-0.277532,0,0
242,60.25,45.9943,52.7449,166.825,99.6333,102.545,0.007409129,0.239456,20.7246,926.298,-0.257626,0,0
244,60.75,46.3211,52.6098,155.134,99.6346,101.933,0.007399167,0.238865,20.7252,926.278,-0.203959,0,0
246,61.25,46.0954,52.6695,164.378,99.6413,102.593,0.007414221,0.238189,20.7258,926.247,-0.261092,0,0
248,61.75,46.3627,52.4663,159.042,99.6434,102.744,0.007426415,0.237641,20.7265,926.207,-0.274078,0,0
250,62.25,45.8613,52.8548,160.238,99.6548,104.063,0.00745456,0.237099,20.7271,926.157,-0.387135,0,0
252,62.75,46.3635,52.4385,159.806,99.6607,103.014,0.0074938,0.236659,20.7275,926.127,-0.296,0,0
254,63.25,45.8899,52.5886,158.367,99.6594,102.474,0.007525584,0.236304,20.7279,926.097,-0.249068,0,0
256,63.75,46.0165,52.5657,161.103,99.672,102.998,0.007564532,0.235719,20.7282,926.097,-0.293507,0,0
258,64.25,46.317,52.5321,162.759,99.6737,103.387,0.007607962,0.235246,20.7289,926.077,-0.327091,0,0
260,64.75,46.0462,52.9724,157.544,99.6796,102.759,0.007648218,0.234663,20.7294,926.017,-0.272054,0,0
262,65.25,45.8696,52.7218,162.603,99.6762,103.151,0.007685395,0.23401,20.7307,926.007,-0.306421,0,0
264,65.75,46.0156,52.6984,157.322,99.6952,102.227,0.007716524,0.233482,20.7318,925.957,-0.2243,0,0
266,66.25,46.1058,52.3808,160.208,99.6952,102.994,0.007742654,0.232795,20.7331,925.927,-0.291095,0,0
268,66.75,46.1677,52.6212,165.745,99.7141,102.556,0.007763818,0.232005,20.7341,925.887,-0.251307,0,0
270,67.25,45.9748,52.8458,164.114,99.704,102.968,0.007784824,0.231218,20.7354,925.877,-0.288114,0,0
272,67.75,45.7551,52.7824,164.645,99.7263,102.691,0.007801839,0.230447,20.7364,925.777,-0.261957,0,0
274,68.25,46.0454,52.5026,159.835,99.7284,102.659,0.007819476,0.229668,20.7373,925.757,-0.258981,0,0
276,68.75,46.4329,52.2881,164.349,99.725,102.859,0.007833761,0.228897,20.7379,925.717,-0.276749,0,0
278,69.25,46.1614,52.4647,165.435,99.7254,101.97,0.007847366,0.228273,20.7385,925.677,-0.199037,0,0
280,69.75,46.1501,52.4429,161.764,99.7221,101.888,0.007860216,0.227459,20.7394,925.647,-0.192193,0,0
282,70.25,46.2735,52.4392,162.622,99.7107,102.813,0.007870625,0.2268,20.7401,925.617,-0.273984,0,0
284,70.75,45.853,52.6122,159.807,99.7322,103.43,0.007909957,0.225931,20.7409,925.577,-0.325576,0,0
286,71.25,45.8195,52.6269,159.751,99.7276,101.888,0.007941816,0.225226,20.7418,925.557,-0.19166,0,0
288,71.75,46.1489,52.362,160.837,99.736,102.691,0.007984911,0.224457,20.7425,925.527,-0.261088,0,0
290,72.25,46.0152,52.5117,164.433,99.7389,102.949,0.008035378,0.223655,20.7434,925.457,-0.283255,0,0
292,72.75,46.3034,52.3217,162.518,99.749,102.917,0.008097626,0.223006,20.7443,925.427,-0.279613,0,0
294,73.25,46.2813,52.3087,166.87,99.7427,103.834,0.008167282,0.2221172,20.7449,925.387,-0.359479,0,0
296,73.75,46.5271,52.075,165.41,99.7528,102.967,0.008234904,0.221397,20.7454,925.317,-0.28361,0,0
298,74.25,46.3172,52.2362,168.942,99.757,103.399,0.008299761,0.220777,20.7463,925.317,-0.320667,0,0
300,74.75,46.0988,52.1559,163.092,99.7553,103.646,0.008362477,0.220242,20.747,925.287,-0.342174,0,0
302,75.25,46.0312,52.0901,162.786,99.7549,102.826,0.008422442,0.219809,20.7476,925.267,-0.271203,0,0
304,75.75,46.0427,52.1121,166.448,99.7629,103.521,0.008482225,0.219458,20.748,925.197,-0.330657,0,0
306,76.25,45.9164,52.4541,162.964,99.7545,102.233,0.008540741,0.219173,20.7484,925.127,-0.219446,0,0
308,76.75,45.9414,52.3693,161.379,99.7469,102.166,0.008588139,0.218734,20.7487,925.137,-0.214314,0,0
310,77.25,46.1016,52.115,161.989,99.7625,102.852,0.008626532,0.218378,20.7489,925.086,-0.272716,0,0
312,77.75,45.8732,52.1992,164.965,99.7713,101.478,0.008696372,0.217742,20.7496,925.076,-0.15167,0,0
314,78.25,45.9054,52.1756,165.198,99.757,101.496,0.008752941,0.217226,20.7501,925.096,-0.154532,0,0
316,78.75,45.731,52.2414,166.689,99.7688,102.874,0.008813046,0.216503,20.7505,925.086,-0.274132,0,0
318,79.25,45.8813,51.8056,158.965,99.7713,102.967,0.008874586,0.215917,20.7513,925.046,-0.281951,0,0
320,79.75,45.8281,52.0822,161.339,99.7696,101.925,0.008932595,0.215208,20.7519,925.016,-0.191164,0,0
322,80.25,45.8889,51.9998,164.591,99.7701,103.249,0.008986929,0.214424,20.7524,924.976,-0.306533,0,0
324,80.75,45.8117,51.9306,159.907,99.7759,102.555,0.009029919,0.213788,20.7528,924.956,-0.245719,0,0
326,81.25,45.8114,51.9393,162.874,99.7751,102.623,0.009063825,0.212816,20.7536,924.926,-0.25171,0,0
328,81.75,45.8359,51.6432,164.097,99.7839,103.436,0.009091288,0.212028,20.7546,924.896,-0.321481,0,0
330,82.25,45.711,51.6694,160.496,99.7764,103.112,0.009101897,0.211208,20.7557,924.876,-0.294078,0,0
332,82.75,45.8651,51.6091,163.665,99.7919,103.561,0.009107428,0.21038,20.7568,924.866,-0.331529,0,0
334,83.25,45.9933,51.4747,164.555,99.7827,103.614,0.009109152,0.209709,20.7577,924.826,-0.336921,0,0
336,83.75,46.0473,51.262,163.187,99.7726,102.402,0.009110548,0.208765,20.7586,924.796,-0.232611,0,0
338,84.25,45.8077,51.2856,163.907,99.7709,103.301,0.009111678,0.208,20.7596,924.756,-0.310992,0,0
340,84.75,45.7041,51.0756,161.081,99.7776,101.794,0.009112595,0.206938,20.7603,924.726,-0.178955,0,0
342,85.25,45.7403,51.1974,164.625,99.778,102.499,0.009150189,0.206078,20.7615,924.706,-0.240583,0,0
344,85.75,45.9037,51.1041,165.125,99.7814,102.227,0.009166216,0.205064,20.7623,924.706,-0.216566,0,0
346,86.25,45.6459,51.0975,169.46,99.7827,101.395,0.009208942,0.204243,20.7636,924.666,-0.143385,0,0
348,86.75,45.654,51.1176,158.5,99.7768,103.161,0.009257336,0.203578,20.7647,924.646,-0.298285,0,0
350,87.25,45.5708,51.0258,166.543,99.7839,102.776,0.009313907,0.202974,20.7655,924.616,-0.264216,0,0
352,87.75,45.8218,50.8028,162.951,99.7688,102.855,0.009375364,0.202426,20.7662,924.586,-0.272446,0,0
354,88.25,45.5896,50.9963,163.965,99.7814,101.966,0.009430254,0.201982,20.7668,924.536,-0.193722,0,0
356,88.75,45.9232,50.8812,171.671,99.7772,102.165,0.009479313,0.201829,20.7673,924.516,-0.211514,0,0
358,89.25,45.6545,50.576,160.725,99.7776,102.677,0.009519052,0.201568,20.7676,924.496,-0.256172,0,0
360,89.75,45.5442,50.8292,164.881,99.7705,102.343,0.009535707,0.201233,20.7679,924.446,-0.227676,0,0
362,90.25,45.7805,50.6021,166.886,99.7637,102.856,0.009549197,0.20085,20.7682,924.416,-0.273025,0,0
364,90.75,45.5688,50.7212,157.818,99.7688,102.474,0.00953488,0.200345,20.7686,924.406,-0.239214,0,0
366,91.25,45.3352,50.451,160.503,99.7705,101.806,0.009523284,0.19976,20.7692,924.356,-0.180619,0,0
368,91.75,45.2319,50.7624,163.746,99.7566,101.827,0.009498572,0.199286,20.7696,924.336,-0.183694,0,0
370,92.25,45.4871,50.429,162.467,99.7692,102.608,0.009464768,0.198627,20.77,924.316,-0.250886,0,0
372,92.75,45.435,50.2189,160.287,99.7612,102.294,0.009430238,0.198093,20.7703,924.286,-0.224184,0,0
374,93.25,45.1822,50.6302,168.868,99.7637,102.503,0.009395837,0.197574,20.7705,924.256,-0.242246,0,0
376,93.75,45.3486,50.496,164.102,99.765,101.823,0.009367971,0.197075,20.7707,924.226,-0.182599,0,0
378,94.25,45.1968,50.4127,164.359,99.7701,101.865,0.009351226,0.196578,20.7711,924.196,-0.18585,0,0
380,94.75,45.5934,50.1115,166.494,99.7549,102.307,0.009337662,0.19609,20.7716,924.186,-0.225894,0,0
382,95.25,45.1788,50.1086,159.358,99.7604,101.907,0.009340254,0.195695,20.7722,924.156,-0.190377,0,0
384,95.75,45.1031,50.44,159.024,99.749,101.644,0.009342354,0.195032,20.773,924.136,-0.168309,0,0
386,96.25,45.1303,50.0739,162.002,99.7621,102.519,0.009352225,0.194495,20.7736,924.106,-0.243793,0,0
388,96.75,45.1187,50.1633,159.896,99.7494,102.56,0.009367574,0.193731,20.7745,924.076,-0.248518,0,0
390,97.25,45.2282,50.0403,163.933,99.7499,101.478,0.009401358,0.193113,20.7752,924.056,-0.153635,0,0
392,97.75,45.0188,50.207,161.375,99.7473,102.673,0.009428722,0.192188,20.7762,924.046,-0.258508,0,0
394,98.25,45.2588,49.9139,162.718,99.749,103.239,0.009450887,0.191438,20.7771,924.006,-0.30758,0,0
396,98.75,45.1841,49.7989,158.545,99.7528,101.142,0.009496027,0.190615,20.778,923.976,-0.123675,0,0
398,99.25,45.4797,49.626,164.7,99.7385,103.124,0.009532589,0.189755,20.7789,923.966,-0.298523,0,0
400,99.75,45.0519,49.7833,159.513,99.7355,102.131,0.009562206,0.188885,20.7797,923.936,-0.212234,0,0
402,100.25,45.1561,49.8253,163.729,99.749,102.423,0.009605628,0.188026,20.7803,923.906,-0.236544,0,0
404,100.75,44.8484,50.1369,162.132,99.7465,102.313,0.0096408,0.18733,20.7808,923.885,-0.227158,0,0
406,101.25,45.0434,49.6286,162.594,99.7511,102.055,0.009694552,0.186166,20.7817,923.875,-0.204215,0,0
408,101.75,45.1091,49.6232,162.211,99.7444,102.481,0.009738092,0.185224,20.7828,923.855,-0.242078,0,0
410,102.25,44.8132,49.6677,169.443,99.7431,102.411,0.009808365,0.184461,20.7841,923.835,-0.236098,0,0
412,102.75,44.9141,49.2767,166.678,99.7326,102.569,0.009865286,0.183013,20.7856,923.795,-0.250746,0,0
414,103.25,45.0631,49.2381,166.026,99.7448,102.251,0.009967833,0.181841,20.7871,923.765,-0.221882,0,0
416,103.75,44.5453,49.6348,161.904,99.7309,101.287,0.0100509,0.180322,20.7885,923.735,-0.138485,0,0
418,104.25,44.7887,49.0824,161.767,99.7372,102.005,0.0101592,0.179091,20.7896,923.725,-0.201041,0,0
420,104.75,44.8014,48.988,166.15,99.736,101.468,0.0102838,0.17731,20.7913,923.695,-0.15394,0,0
422,105.25,44.8567,49.1155,163.22,99.7385,102.796,0.01038481,0.175867,20.7928,923.665,-0.270018,0,0
424,105.75,44.6958,49.0005,168.254,99.7284,102.768,0.0104995,0.173888,20.7939,923.645,-0.26852,0,0
426,106.25,44.6562,48.8117,164.037,99.7334,102.254,0.0106219,0.172285,20.7953,923.625,-0.223198,0,0
428,106.75,44.8908,48.5731,161.702,99.7259,101.499,0.0107457,0.170675,20.7964,923.585,-0.157623,0,0
430,107.25,44.7622,48.5823,161.77,99.7276,101.659,0.0108683,0.16909,20.7973,923.575,-0.171512,0,0
432,107.75,44.1459,48.9009,163.472,99.7107,101.832,0.0109675,0.167807,20.7985,923.545,-0.188233,0,0
434,108.25,44.3626,48.4422,161.666,99.7217,101.98,0.0110839,0.166149,20.7994,923.505,-0.200226,0,0
436,108.75,44.2395,48.3347,164.245,99.7162,102.634,0.0112106,0.164806,20.8002,923.495,-0.257964,0,0
438,109.25,44.3663,48.5274,165.626,99.7145,102.678,0.01134307,0.163393,20.8008,923.465,-0.261873,0,0
440,109.75,44.2302,48.105,162.943,99.7166,101.711,0.0114773,0.161957,20.8018,923.445,-0.177098,0,0
442,110.25,43.8962,48.2433,164.023,99.7053,101.965,0.011586,0.160794,20.803,923.445,-0.200423,0,0
444,110.75,43.917,47.8382,159.713,99.7074,102.759,0.011772,0.159851,20.8039,923.435,-0.269605,0,0
446,111.25,43.8261,47.8594,165.384,99.7048,102.762,0.0119227,0.158271,20.8056,923.425,-0.270126,0,0
448,111.75,43.9383,47.7477,169.44,99.7124,102.324,0.0121607,0.156992,20.8078,923.395,-0.23123,0,0
450,112.25,44.1577,47.5375,158.71,99.7015,101.826,0.01235339,0.154968,20.8105,923.385,-0.188595,0,0
452,112.75,44.0065,47.5967,164.52,99.6897,101.672,0.0125095,0.153329,20.8126,923.375,-0.1760609,0,0
454,113.25,43.6262,47.9063,161.63,99.6989,101.36,0.0127954,0.15135,20.8152,923.365,-0.147729,0,0
456,113.75,43.5437,47.2895,167.532,99.6905,101.679,0.013027,0.149161,20.8182,923.355,-0.176582,0,0
458,114.25,43.5541,46.9463,165.705,99.6939,100.9,0.013327,0.146803,20.8208,923.345,-0.107543,0,0
460,114.75,43.2404,46.7605,166.99,99.6926,101.48,0.01357,0.144365,20.8232,923.325,-0.158896,0,0
462,115.25,43.7015,46.7758,165.987,99.6838,101.382,0.0138158,0.14239,20.8257,923.315,-0.151055,0,0
464,115.75,43.3096,46.7146,164.228,99.6863,101.693,0.0140589,0.139734,20.8284,923.315,-0.178196,0,0
466,116.25,42.9921,46.5342,165.862,99.683,101.39,0.0142745,0.137583,20.8306,923.335,-0.151814,0,0
468,116.75,43.0138,46.2306,167.686,99.6842,101.868,0.0144661,0.135348,20.8333,923.355,-0.193803,0,0
470,117.25,43.1593,46.1943,167.524,99.6779,101.11,0.0146233,0.133095,20.8354,923.255,-0.1276052,0,0
472,117.75,42.6237,46.0807,170.669,99.6842,101.93,0.0147525,0.130952,20.8376,923.225,-0.199249,0,0
474,118.25,42.7215,46.0164,164.493,99.6779,101.414,0.0148426,0.12893,20.8393,923.275,-0.154405,0,0
476,118.75,42.5624,46.1694,164.617,99.6733,101.194,0.0149025,0.127084,20.8412,923.265,-0.135435,0,0
478,119.25,42.4985,45.8409,169.347,99.6762,101.042,0.014951,0.125403,20.8427,923.235,-0.12171,0,0
480,119.75,42.4139,45.348,169.786,99.6724,102.188,0.014959,0.12389,20.8439,923.215,-0.222945,0,0
482,120.25,42.3405,45.2399,163.559,99.6741,102.082,0.0149374,0.122528,20.8449,923.225,-0.213456,0,0
484,120.75,42.2731,45.0849,164.145,99.667,101.623,0.0149199,0.121424,20.8457,923.175,-0.173791,0,0
486,121.25,42.5626,44.9908,165.639,99.664,101.6,0.01488203,0.12036,20.8466,923.185,-0.172093,0,0
488,121.75,42.346,44.9048,165.607,99.6577,102.604,0.0148513,0.119498,20.8475,923.205,-0.260591,0,0
490,122.25,42.2189,44.828,169.296,99.6754,101.634,0.0148048,0.118717,20.8482,923.195,-0.174018,0,0
492,122.75,42.1576,44.529,170.616,99.6594,101.027,0.014767,0.11801,20.8488,923.155,-0.121889,0,0
494,123.25,41.7821,44.5073,167.361,99.6539,101.221,0.01470289,0.117437,20.8497,923.135,-0.139528,0,0
496,123.75,42.0129,44.0756,165.319,99.6573,101.567,0.01465094,0.116803,20.8505,923.135,-0.16971,0,0
498,124.25,41.5271,44.3408,166.235,99.651,101.56,0.0145674,0.11629,20.8511,923.115,-0.169679,0,0
500,124.75,41.4564,44.1005,165.01,99.6531,102.453,0.01449977,0.115769,20.8516,923.095,-0.247815,0,0
502,125.25,41.442,44.1604,166.235,99.6447,100.847,0.0143957,0.115347,20.852,923.105,-0.107277,0,0
504,125.75,41.2174,44.1167,168.646,99.6463,101.619,0.0143114,0.114888,20.8523,923.085,-0.175342,0,0
506,126.25,41.4514,44.1046,166.03,99.6358,101.404,0.0142431,0.114516,20.8525,923.055,-0.157326,0,0
508,126.75,41.3877,43.9335,165.69,99.6358,102.267,0.0141444,0.114149,20.8527,923.065,-0.2331,0,0
510,127.25,41.2373,43.5667,173.38,99.6341,102.035,0.0140645,0.113852,20.8529,923.045,-0.212924,0,0
512,127.75,41.2041,43.8245,170.611,99.635,101.575,0.0139702,0.113638,20.8528,923.035,-0.172437,0,0
514,128.25,40.9553,43.7597,170.242,99.6156,101.738,0.01389389,0.113464,20.8526,923.015,-0.188503,0,0
516,128.75,41.0899,43.553,167.629,99.6236,101.625,0.0137927,0.113324,20.8523,922.995,-0.177851,0,0
518,129.25,40.8382,43.2154,163.816,99.6123,102.159,0.0137107,0.113223,20.8521,922.995,-0.2258,0,0
520,129.75,40.9307,43.0514,169.04,99.6139,101.319,0.0136092,0.113141,20.852,922.985,-0.151806,0,0
522,130.25,40.7738,43.5924,164.041,99.6106,101.763,0.0134952,0.113013,20.8519,922.985,-0.191172,0,0
524,130.75,40.6938,43.4625,166.261,99.6051,101.321,0.0134029,0.112853,20.8518,922.975,-0.152727,0,0
526,131.25,41.2994,43.0661,168.841,99.595,101.134,0.0133282,0.112642,20.8517,922.965,-0.137103,0,0
528,131.75,40.5978,42.6538,165.471,99.5858,102.199,0.0130167,0.112396,20.8518,922.945,-0.231659,0,0
530,132.25,40.5317,43.2568,173.879,99.5862,101.341,0.0127644,0.111867,20.852,923.035,-0.156224,0,0
532,132.75,40.8353,42.7514,171.335,99.5853,101.383,0.0123785,0.111142,20.8531,922.865,-0.159977,0,0
534,133.25,40.4963,42.8226,166.348,99.5639,101.988,0.0120659,0.110554,20.8548,924.976,-0.215111,0,0
536,133.75,40.7315,42.7478,169.877,99.5752,101.488,0.0118127,0.108847,20.8562,922.975,-0.170116,0,0
538,134.25,40.615,42.5178,168.192,99.5647,101.169,0.0113761,0.106355,20.8589,923.145,-0.142953,0,0
540,134.75,40.2903,42.7565,174.792,99.5597,101.212,0.0110224,0.104337,20.8626,890.577,-0.147176,0,0
542,135.25,40.2101,42.5021,176.011,99.547,101.657,0.01062346,0.101383,20.8655,24.8912,-0.187586,0,0
544,135.75,40.1848,42.1095,169.338,99.5534,101.592,0.0103003,0.0989898,20.8679,3.12265,-0.181261,0,0
546,136.25,40.0657,41.4288,168.431,99.5386,101.85,0.009986616,0.0970583,20.8699,-0.230196,-0.205298,0,0
548,136.75,40.1757,41.0556,168.659,99.5458,100.736,0.009685757,0.0954998,20.8719,-0.240204,-0.106263,0,0
550,137.25,39.6343,40.9721,170.913,99.5285,101.92,0.009392232,0.0942375,20.8735,-0.120102,-0.212333,0,0
552,137.75,39.8699,40.6421,167.096,99.5332,101.735,0.009109629,0.0934217,20.8752,-0.230196,-0.195654,0,0
554,138.25,39.553,40.5352,168.908,99.5151,101.087,0.008823875,0.0927609,20.8766,-0.20017,-0.140125,0,0
556,138.75,39.0025,40.7301,166.854,99.5193,101.223,0.008541252,0.0919334,20.8778,-0.160136,-0.151833,0,0
558,139.25,38.8769,40.5088,171.252,99.505,101.116,0.008312329,0.0910001,20.8787,-0.530451,-0.143649,0,0
560,139.75,38.8302,40.3056,170.024,99.5037,101.612,0.007997968,0.0902441,20.8812,-1.40119,-0.187513,0,0
562,140.25,39.1214,39.7102,173.669,99.4911,102.1,0.007743336,0.0887295,20.8832,-0.210179,-0.231508,0,0
564,140.75,38.5924,39.6165,171.09,99.4873,101.818,0.007434081,0.0875026,20.8848,-0.110094,-0.207102,0,0
566,141.25,39.0362,39.3359,167.065,99.4801,102.216,0.007090883,0.0857242,20.8875,-0.190162,-0.242633,0,0
568,141.75,38.4063,39.2707,171.554,99.4734,101.332,0.006812892,0.0842837,20.8896,-0.160136,-0.165543,0,0
570,142.25,38.306,39.4337,173.215,99.4688,102.485,0.006463374,0.082462,20.8922,-0.180153,-0.267119,0,0
572,142.75,38.148,39.5193,168.292,99.4684,102.442,0.006180265,0.0809864,20.8943,-0.180153,-0.263392,0,0
574,143.25,38.407,39.2638,169.276,99.4528,102.002,0.005880295,0.0793167,20.896,-0.210179,-0.226369,0,0
576,143.75,38.5133,39.4964,173.819,99.4549,101.896,0.00563732,0.0779643,20.8973,-0.230196,-0.216867,0,0
578,144.25,38.1627,39.797,165.039,99.4461,101.439,0.005404263,0.0766665,20.8987,-0.230196,-0.177453,0,0
580,144.75,38.5213,39.0068,165.326,99.4473,101.858,0.005215487,0.0754333,20.9,-0.20017,-0.214186,0,0
582,145.25,38.5523,39.1763,169.306,99.4326,102.264,0.005037794,0.0744344,20.9012,-0.20017,-0.251106,0,0
584,145.75,38.5288,39.1345,167.538,99.4372,102.043,0.004893863,0.0733693,20.9025,-0.190162,-0.231296,0,0
586,146.25,38.3169,39.5161,164.958,99.4145,101.323,0.004768251,0.0725065,20.9035,-0.20017,-0.17007,0,0
588,146.75,38.3333,39.3393,166.833,99.4296,101.911,0.00465838,0.0716414,20.9043,-0.190162,-0.220456,0,0
590,147.25,38.2976,39.2032,167.142,99.4065,102.343,0.004569384,0.0709406,20.905,-0.190162,-0.260317,0,0
592,147.75,38.132,39.1518,167.992,99.4061,101.269,0.004480151,0.0702323,20.9055,-0.190162,-0.166078,0,0
594,148.25,38.2211,38.8863,172.926,99.4044,101.814,0.004407873,0.06965857,20.9059,-0.210179,-0.214173,0,0
596,148.75,38.3401,39.1559,168.31,99.412,101.081,0.004334087,0.0690276,20.9063,-0.190162,-0.14888,0,0
598,149.25,38.1239,39.0646,172.948,99.4006,101.114,0.00427432,0.0685166,20.9066,-0.190162,-0.152817,0,0
600,149.75,38.18013,39.1512,167.335,99.4048,101.27,0.004201163,0.0681026,20.9068,-0.170145,-0.166234,0,0
602,150.25,38.1977,38.9893,168.937,99.3905,101.357,0.004141905,0.06766507,20.907,-0.180153,-0.17518,0,0
604,150.75,38.1587,38.9701,168.47,99.3914,101.801,0.00407788,0.0673106,20.9071,-0.240204,-0.21424,0,0
606,151.25,38.396,39.0535,174.544,99.3834,101.328,0.004011597,0.0669832,20.9077,-0.250213,-0.173257,0,0
608,151.75,38.3307,39.3321,168.796,99.3922,101.314,0.003950903,0.0666817,20.9081,-0.230196,-0.171307,0,0
610,152.25,38.2548,39.1361,165.839,99.3825,100.783,0.003895436,0.06638363,20.9085,-0.180153,-0.125115,0,0
612,152.75,37.8906,39.3808,169.634,99.3863,101.729,0.003850508,0.0660938,20.9088,-0.20017,-0.208389,0,0
614,153.25,37.9005,39.0681,169.5,99.3707,101.007,0.00381221,0.0658389,20.909,-0.190162,-0.146069,0,0
616,153.75,37.951,38.8234,172.163,99.3783,101.863,0.003781188,0.0656142,20.9094,-0.20017,-0.220862,0,0
618,154.25,37.8325,38.3822,170.195,99.3674,101.522,0.003756061,0.0654323,20.91,-0.190162,-0.191835,0,0
620,154.75,38.0469,38.8142,168.04,99.3707,101.946,0.003735707,0.0652849,20.9104,-0.180153,-0.228819,0,0
622,155.25,38.0017,38.8968,169.614,99.3737,101.22,0.003723027,0.0651655,20.9106,-0.180153,-0.164668,0,0
624,155.75,38.1148,38.7527,172.078,99.4019,101.145,0.003712755,0.0650049,20.9105,-0.20017,-0.155448,0,0
626,156.25,37.9034,38.7407,169.78,99.4204,101.578,0.003708238,0.06487485,20.9104,-0.20017,-0.191974,0,0
628,156.75,37.9423,38.6411,166.016,99.436,102.045,0.003704578,0.0647695,20.9099,-0.20017,-0.231622,0,0
630,157.25,38.061,38.5193,167.818,99.4494,102.047,0.003704619,0.0646842,20.9095,-0.210179,-0.23058,0,0
632,157.75,37.8401,38.9043,171.723,99.465,101.237,0.003707356,0.0645001,20.9096,-0.210179,-0.157954,0,0
634,158.25,37.5027,38.9386,167.28,99.4814,101.231,0.00371458,0.064351,20.9097,-0.190162,-0.155879,0,0
636,158.75,37.4984,39.0499,170.722,99.4928,101.788,0.003724938,0.064237,20.9097,-0.180153,-0.203928,0,0
638,159.25,37.5706,38.9729,174.076,99.5163,101.282,0.003736333,0.0641507,20.9098,-0.180153,-0.157279,0,0
640,159.75,37.7842,38.8241,167.034,99.5353,101.195,0.003748269,0.0640942,20.9094,-0.20017,-0.147912,0,0
642,160.25,37.4168,38.9456,165.808,99.539,100.518,0.003759836,0.0640606,20.9091,-0.210179,-0.0875248,0,0
644,160.75,37.746,38.7844,168.009,99.5643,101.948,0.003769206,0.0639997,20.9088,-0.210179,-0.211587,0,0
646,161.25,37.8036,38.2178,169.909,99.574,102.058,0.003776795,0.0639202,20.9086,-0.210179,-0.220365,0,0
648,161.75,37.7116,38.3603,171.433,99.5782,102.254,0.003788655,0.0638423,20.9085,-0.190162,-0.237174,0,0
650,162.25,37.6524,38.3362,173.801,99.6114,101.427,0.003798261,0.0637671,20.9083,-0.180153,-0.161569,0,0
652,162.75,38.0496,38.4181,165.342,99.6299,101.75,0.003811746,0.063713,20.9082,-0.190162,-0.188327,0,0
654,163.25,37.5267,38.3993,165.229,99.6379,102.346,0.003822669,0.06367515,20.9081,-0.180153,-0.239818,0,0
656,163.75,37.5559,38.1179,171.288,99.6564,102.181,0.003830516,0.0636512,20.9081,-0.190162,-0.223744,0,0
658,164.25,37.2581,38.6531,168.265,99.6745,101.094,0.003835973,0.0636379,20.908,-0.190162,-0.1264925,0,0
660,164.75,37.5805,38.0816,170.875,99.6846,102.042,0.00383939,0.0636271,20.908,-0.180153,-0.208987,0,0
662,165.25,37.2878,38.523,174.069,99.7107,102.006,0.003841257,0.0636184,20.9083,-0.170145,-0.203503,0,0
664,165.75,37.7753,38.3372,164.763,99.7162,101.741,0.003839762,0.0636113,20.9087,-0.180153,-0.179735,0,0
666,166.25,37.5583,38.4218,167.102,99.7305,101.489,0.003835846,0.0635854,20.9089,-0.180153,-0.156353,0,0
668,166.75,37.5737,38.192,168.632,99.7393,102.066,0.003832673,0.0635463,20.9091,-0.180153,-0.206205,0,0
670,167.25,37.3382,38.0175,165.087,99.7507,100.988,0.003826304,0.0635213,20.9093,-0.170145,-0.110266,0,0
672,167.75,37.302,38.394,166.416,99.7486,101.751,0.003821145,0.0635071,20.9094,-0.170145,-0.177725,0,0
674,168.25,37.3763,38.3054,169.365,99.7747,101.519,0.003816966,0.0634957,20.9096,-0.180153,-0.154997,0,0
676,168.75,37.1739,38.0635,168.455,99.7722,101.345,0.00380787,0.0634864,20.9097,-0.180153,-0.139923,0,0
678,169.25,37.0362,38.5213,171.881,99.8058,101.331,0.003800503,0.0634788,20.9097,-0.180153,-0.135666,0,0
680,169.75,37.5768,37.9881,162.746,99.8003,102.464,0.003792628,0.0634727,20.9096,-0.180153,-0.235582,0,0
682,170.25,37.2482,38.1271,169.314,99.8176,101.643,0.003786249,0.0634678,20.9092,-0.190162,-0.162077,0,0
684,170.75,37.1795,38.3051,174.173,99.8306,102.05,0.003782989,0.0634369,20.9089,-0.190162,-0.196662,0,0
686,171.25,37.6134,38.1175,170.297,99.8433,101.911,0.003780349,0.0633877,20.9087,-0.20017,-0.183332,0,0
688,171.75,37.4831,38.3589,175.114,99.8458,101.917,0.003778211,0.0633479,20.9085,-0.180153,-0.183659,0,0
690,172.25,36.9026,37.9219,169.694,99.8656,101.925,0.003776478,0.0633156,20.9084,-0.190162,-0.182526,0,0
692,172.75,37.0516,38.4575,169.003,99.866,102.199,0.003775075,0.0632894,20.9083,-0.190162,-0.206529,0,0
694,173.25,37.4998,38.1486,163.062,99.8794,101.887,0.003773939,0.0632682,20.9082,-0.150128,-0.178007,0,0
696,173.75,36.9008,37.847,173.874,99.8828,101.515,0.003759703,0.0632511,20.9083,-0.160136,-0.144926,0,0
698,174.25,36.9697,38.3453,173.548,99.9068,102.178,0.003753634,0.0632244,20.9085,-0.160136,-0.201051,0,0
700,174.75,37.3276,37.7755,169.427,99.9156,101.743,0.003743256,0.0632028,20.9088,-0.190162,-0.16208,0,0
702,175.25,37.145,37.9996,170.614,99.9274,101.933,0.003720838,0.063147,20.909,-0.230196,-0.177755,0,0
704,175.75,37.1194,38.2421,174.48,99.9177,102.439,0.003690067,0.06310185,20.9092,-0.220187,-0.222868,0,0
706,176.25,37.0632,37.8554,169.084,99.932,102.126,0.00366114,0.0631163,20.9094,-0.220187,-0.194251,0,0
708,176.75,37.4514,37.8566,170.831,99.9316,102.651,0.003634108,0.063128,20.9095,-0.210179,-0.2401,0,0
710,177.25,36.9276,38.2925,173.414,99.9497,101.963,0.003612212,0.063133,20.9092,-0.190162,-0.178353,0,0
712,177.75,37.0659,37.8977,170.82,99.9522,102.302,0.003594476,0.0631819,20.9089,-0.220187,-0.207797,0,0
714,178.25,36.9482,38.2035,169.208,99.9577,101.966,0.003587714,0.0632577,20.9091,-0.230196,-0.177935,0,0
716,178.75,37.05,37.7128,165.739,99.948,101.642,0.003582237,0.0632721,20.9096,-0.20017,-0.15027,0,0
718,179.25,37.0771,38.1328,167.003,99.9598,102.461,0.003585405,0.0632415,20.91,-0.180153,-0.22105,0,0
720,179.75,36.9087,37.7437,171.149,99.9674,101.965,0.003587971,0.0632166,20.9103,-0.160136,-0.176899,0,0
722,180.25,37.184,37.7386,166.002,99.9779,101.96,0.003599555,0.0632032,20.9106,-0.160136,-0.175534,0,0
724,180.75,36.5981,38.0091,167.788,99.9817,101.851,0.003608938,0.0631984,20.9108,-0.140119,-0.165665,0,0
726,181.25,36.9669,37.6891,169.998,99.9994,102.839,0.003622246,0.0631945,20.9109,-0.150128,-0.25041,0,0
728,181.75,36.7902,37.9055,168.537,99.9977,101.626,0.003633026,0.0631914,20.9111,-0.160136,-0.144464,0,0
730,182.25,36.6905,37.8029,171.145,100.003,101.695,0.003641758,0.0631888,20.9112,-0.160136,-0.150073,0,0
732,182.75,36.9618,37.6917,172.87,100.003,101.564,0.003631715,0.0631868,20.9113,-0.180153,-0.138471,0,0
734,183.25,36.708,38.1051,172.465,100.023,102.001,0.00362358,0.0631851,20.9114,-0.160136,-0.175157,0,0
736,183.75,36.7068,37.6637,168.455,100.015,102.076,0.003599881,0.06318374,20.9114,-0.170145,-0.182378,0,0
738,184.25,36.9227,37.8597,166.872,100.029,102.418,0.003580684,0.0631826,20.9115,-0.160136,-0.211112,0,0
740,184.75,37.0806,37.7281,169.572,100.028,101.789,0.003558134,0.0631885,20.9115,-0.170145,-0.156034,0,0
742,185.25,37.0912,38.0433,169.306,100.038,101.56,0.003533567,0.06319923,20.9115,-0.170145,-0.134968,0,0
744,185.75,36.6876,37.8974,169.427,100.033,101.747,0.003513668,0.0632079,20.9116,-0.170145,-0.151882,0,0
746,186.25,36.8456,37.8482,169.029,100.041,102.436,0.00349755,0.0631895,20.9116,-0.170145,-0.211549,0,0
748,186.75,37.1907,37.7955,172.852,100.048,101.592,0.003491495,0.0631745,20.9116,-0.170145,-0.136921,0,0
750,187.25,37.1288,37.8159,165.99,100.059,102.403,0.003492892,0.0631423,20.9116,-0.170145,-0.207087,0,0
752,187.75,36.8771,37.9299,166.261,100.049,102.459,0.003507032,0.063098,20.9116,-0.150128,-0.212861,0,0
754,188.25,36.8461,38.0223,170.594,100.064,102.226,0.003530193,0.0630621,20.9116,-0.160136,-0.191171,0,0
756,188.75,37.1295,37.6338,170.82,100.072,102.174,0.003548953,0.0630586,20.9116,-0.160136,-0.185922,0,0
758,189.25,36.997,37.8243,172.926,100.073,102.003,0.003564149,0.0630557,20.9116,-0.160136,-0.170852,0,0
760,189.75,36.4486,38.0637,173.743,100.078,102.277,0.003620215,0.0630662,20.9117,-0.160136,-0.194349,0,0
762,190.25,36.6671,37.8587,169.231,100.09,102.009,0.003665629,0.0630881,20.9117,-0.170145,-0.169825,0,0
764,190.75,36.7652,37.6566,168.141,100.088,102.544,0.003702414,0.0631179,20.9117,-0.150128,-0.216845,0,0
766,191.25,36.7863,37.6091,174.54,100.093,102.23,0.00373221,0.0631421,20.9117,-0.150128,-0.188878,0,0
768,191.75,37.1048,37.798,168.243,100.103,102.169,0.003725903,0.0631415,20.9117,-0.20017,-0.182711,0,0
770,192.25,36.6609,37.5051,167.762,100.102,101.96,0.003720794,0.0631229,20.9117,-0.20017,-0.164479,0,0
772,192.75,36.6485,38.0518,172.08,100.105,102.363,0.003688129,0.0631078,20.9117,-0.190162,-0.199521,0,0
774,193.25,36.6137,38.0627,168.205,100.097,102.399,0.003661671,0.0630701,20.9117,-0.190162,-0.203326,0,0
776,193.75,37.0423,37.7112,167.375,100.091,102.329,0.00363264,0.0630395,20.9117,-0.190162,-0.197754,0,0
778,194.25,36.8119,37.8769,168.428,100.109,102.56,0.003609125,0.0630148,20.9117,-0.180153,-0.21636,0,0
780,194.75,36.4175,37.987,166.409,100.11,102.835,0.003603085,0.0629947,20.9117,-0.190162,-0.24014,0,0
782,195.25,36.5085,37.8053,170.785,100.113,102.517,0.003609899,0.0629785,20.9117,-0.20017,-0.212142,0,0
784,195.75,36.4754,37.5437,172.313,100.116,103.052,0.003615417,0.0629653,20.9117,-0.20017,-0.258485,0,0
786,196.25,36.48,37.9489,173.909,100.119,102.033,0.003636908,0.0629419,20.9117,-0.190162,-0.169351,0,0
788,196.75,36.6196,37.307,167.744,100.123,102.844,0.003669634,0.0629229,20.9117,-0.190162,-0.239818,0,0
790,197.25,36.5095,37.6509,166.527,100.124,101.45,0.003698144,0.0629203,20.9117,-0.190162,-0.117647,0,0
792,197.75,36.7669,37.4237,172.968,100.121,102.462,0.003723039,0.0629182,20.9117,-0.20017,-0.206728,0,0
794,198.25,36.8601,37.6403,168.075,100.128,103.023,0.003739198,0.0629165,20.9117,-0.210179,-0.254945,0,0
796,198.75,36.8034,37.5334,170.359,100.137,101.898,0.003748682,0.0629662,20.9117,-0.220187,-0.155874,0,0
798,199.25,36.8227,37.3804,169.643,100.135,102.681,0.003756363,0.0630064,20.9117,-0.230196,-0.224511,0,0
800,199.75,36.7536,37.4912,167.093,100.14,102.263,0.003737859,0.0630323,20.9117,-0.230196,-0.187594,0,0
802,200.25,36.5034,37.4269,168.413,100.133,102.08,0.003722871,0.0630472,20.9117,-0.220187,-0.172194,0,0
804,200.75,36.3641,37.2131,173.818,100.142,102.457,0.00371073,0.0630391,20.9117,-0.220187,-0.204384,0,0
806,201.25,36.6423,37.354,170.718,100.141,102.924,0.003647669,0.0630144,20.9118,-0.190162,-0.245112,0,0
808,201.75,36.4005,37.2601,166.426,100.134,103.276,0.003596589,0.0629944,20.912,-0.20017,-0.276283,0,0
810,202.25,36.3581,37.7098,165.246,100.131,102.41,0.00353052,0.062991,20.912,-0.190162,-0.201176,0,0
812,202.75,36.3308,37.4541,169.121,100.137,102.487,0.003477005,0.0629882,20.9117,-0.180153,-0.2074202,0,0
814,203.25,36.3161,37.6375,171.033,100.129,102.447,0.003433657,0.062986,20.9115,-0.180153,-0.204698,0,0
816,203.75,36.8621,37.269,169.702,100.139,101.666,0.003408042,0.06304799,20.9114,-0.180153,-0.135364,0,0
818,204.25,36.354,37.3417,173.838,100.129,102.519,0.003387294,0.0630982,20.9112,-0.190162,-0.210883,0,0
820,204.75,36.2561,37.3383,167.947,100.133,102.15,0.003391385,0.0631261,20.9111,-0.190162,-0.178387,0,0
822,205.25,36.2257,37.6949,167.822,100.132,102.63,0.003394698,0.0631487,20.911,-0.20017,-0.220341,0,0
824,205.75,36.737,37.5036,166.991,100.129,102.24,0.003415389,0.0631536,20.911,-0.210179,-0.186616,0,0
826,206.25,36.7564,37.3949,165.441,100.125,102.319,0.003448356,0.0631455,20.9109,-0.210179,-0.19382,0,0
828,206.75,36.3828,37.2333,168.748,100.121,102.61,0.003487072,0.06313888,20.9109,-0.220187,-0.219585,0,0
830,207.25,36.0165,37.6489,162.261,100.115,102.231,0.003529244,0.063147,20.9108,-0.230196,-0.187013,0,0
832,207.75,36.7128,37.5616,173.815,100.12,101.85,0.003572416,0.0631656,20.9108,-0.250213,-0.153202,0,0
834,208.25,36.6094,37.475,165.964,100.115,101.862,0.003615496,0.06318073,20.9108,-0.250213,-0.154716,0,0
836,208.75,36.3473,37.9306,167.852,100.119,101.498,0.003653392,0.063193,20.9108,-0.220187,-0.122285,0,0
838,209.25,37.0612,37.3553,171.892,100.11,101.914,0.00368679,0.0631894,20.911,-0.210179,-0.159645,0,0
840,209.75,36.5199,37.5516,171.854,100.113,101.772,0.003713842,0.0631745,20.9114,-0.210179,-0.146952,0,0
842,210.25,36.4439,37.9662,170.465,100.1,101.693,0.003735755,0.0631758,20.9117,-0.210179,-0.14113,0,0
844,210.75,36.3764,37.5789,166.96,100.107,102.524,0.0037516,0.063189,20.9119,-0.190162,-0.21334,0,0
846,211.25,36.3659,37.5714,169.569,100.094,102.14,0.003764434,0.0632131,20.9121,-0.180153,-0.180949,0,0
848,211.75,36.458,37.7396,168.029,100.099,102.31,0.003784347,0.0632447,20.9123,-0.180153,-0.195387,0,0
850,212.25,36.2459,37.4851,164.868,100.093,101.894,0.003800476,0.0632703,20.9124,-0.20017,-0.159522,0,0
852,212.75,36.5927,37.7355,167.502,100.093,101.899,0.003826868,0.0632911,20.9125,-0.20017,-0.159868,0,0
854,213.25,36.3706,37.4162,165.566,100.083,102.624,0.003848245,0.0633079,20.9126,-0.220187,-0.224231,0,0
856,213.75,36.1803,37.7668,169.564,100.081,102.256,0.00387318,0.0633215,20.9127,-0.230196,-0.192263,0,0
858,214.25,36.7184,37.9069,166.877,100.073,102.38,0.003893377,0.0633453,20.9127,-0.27023,-0.203856,0,0
860,214.75,36.378,37.454,166.09,100.08,100.866,0.003904022,0.0633645,20.9128,-0.260221,-0.06991066,0,0
862,215.25,36.6645,37.8576,164.976,100.052,102.006,0.003912644,0.0633869,20.9128,-0.27023,-0.17303,0,0
864,215.75,36.3487,37.507,165.761,100.062,102.043,0.003883462,0.063411,20.9128,-0.250213,-0.175319,0,0
866,216.25,36.7987,37.8759,169.314,100.059,102.34,0.003859825,0.063405,20.9129,-0.250213,-0.201544,0,0
868,216.75,36.8405,37.6983,163.201,100.055,102.347,0.003840679,0.0634002,20.9129,-0.240204,-0.202598,0,0
870,217.25,36.3869,37.9625,170.877,100.053,101.471,0.003792841,0.06338349,20.9129,-0.180153,-0.125875,0,0
872,217.75,36.6205,37.6598,166.312,100.055,102.051,0.003754092,0.06337,20.9129,-0.20017,-0.176638,0,0
874,218.25,36.1574,37.6755,167.958,100.04,102.157,0.003722706,0.0633845,20.9129,-0.210179,-0.187252,0,0
876,218.75,36.2244,37.4239,171.674,100.043,101.95,0.003697283,0.0633964,20.9129,-0.210179,-0.168893,0,0
878,219.25,36.4722,37.8543,171.828,100.036,101.748,0.00367869,0.0634059,20.9129,-0.20017,-0.151779,0,0
880,219.75,36.2448,37.8693,164.483,100.021,102.04,0.003665431,0.0634137,20.9129,-0.220187,-0.17875,0,0
882,220.25,36.2422,37.3047,165.32,100.015,101.688,0.003654691,0.0634199,20.9129,-0.190162,-0.148299,0,0
884,220.75,36.2747,38.0226,169.137,100.005,101.45,0.003649797,0.0633914,20.913,-0.20017,-0.128289,0,0
886,221.25,36.2971,37.6932,172.327,99.9947,102.497,0.003645832,0.0633381,20.913,-0.20017,-0.221014,0,0
888,221.75,36.7574,37.8225,172.798,100.003,102.106,0.00365213,0.0632815,20.913,-0.20017,-0.186144,0,0
890,222.25,36.4874,37.5908,174.578,99.9918,102.305,0.003657233,0.0632235,20.913,-0.190162,-0.204555,0,0
892,222.75,36.5397,38.3588,168.336,99.9796,101.676,0.003667074,0.0631766,20.913,-0.210179,-0.150475,0,0
894,223.25,36.5321,37.841,168.352,99.9699,102.267,0.003675046,0.0631258,20.913,-0.220187,-0.203122,0,0
896,223.75,36.5266,37.7015,170.736,99.9628,102.679,0.003681503,0.0630846,20.913,-0.20017,-0.239763,0,0
898,224.25,36.2786,37.7142,166.708,99.9464,101.762,0.003686733,0.0630896,20.913,-0.20017,-0.161035,0,0
900,224.75,36.5262,37.6097,173.577,99.9396,102.202,0.003673844,0.0630936,20.9128,-0.20017,-0.20015,0,0
902,225.25,36.632,37.9911,165.232,99.9274,101.731,0.003663404,0.0630841,20.9126,-0.210179,-0.160003,0,0
904,225.75,36.777,37.4018,167.784,99.9203,102.56,0.003647346,0.0630764,20.9124,-0.210179,-0.233173,0,0
906,226.25,36.2491,37.9757,169.663,99.906,102.547,0.003634339,0.0630702,20.9123,-0.230196,-0.233355,0,0
908,226.75,36.1492,37.8881,165.656,99.8824,102.698,0.003623804,0.0630651,20.9122,-0.20017,-0.248645,0,0
910,227.25,36.4379,37.9069,166.943,99.8744,102.159,0.00361527,0.063061,20.9121,-0.20017,-0.202297,0,0
912,227.75,36.1617,37.6188,169.389,99.8702,102.081,,0.0630577,,-0.210179,-0.195796,0,0
914,228.25,36.0916,37.3568,168.905,99.847,102.126,,0.0630423,,-0.240204,-0.201861,0,0
916,228.75,36.4526,37.8759,172.715,99.8315,102.371,,0.0630297,,-0.250213,-0.224623,0,0
918,229.25,36.5903,37.5123,167.853,99.8163,102.189,,0.0630263,,-0.240204,-0.210128,0,0
920,229.75,36.6767,37.4281,167.232,99.8075,102.124,,0.0630296,,-0.250213,-0.205149,0,0
922,230.25,36.1517,37.7673,166.007,99.7945,101.83,,0.0630323,,-0.290247,-0.180598,0,0
924,230.75,36.3349,37.6974,171.317,99.7709,101.504,,,,-0.27023,-0.154056,0,0
926,231.25,36.2279,37.8586,170.778,99.7557,101.792,,,,-0.260221,-0.180747,0,0
928,231.75,36.2992,37.3479,173.436,99.7339,101.75,,,,-0.280238,-0.179003,0,0
930,232.25,36.2444,37.3403,165.478,99.7242,101.748,,,,-0.280238,-0.179657,0,0
932,232.75,36.381,37.3534,170.88,99.7116,102.17,,,,-0.27023,-0.217823,0,0
934,233.25,36.6074,37.5858,165.707,99.6678,103.272,,,,-0.240204,-0.317676,0,0
936,233.75,36.4061,37.5035,165.823,99.656,101.951,,,,-0.220187,-0.203607,0,0
938,234.25,36.2843,37.8388,171.917,99.6358,101.973,,,,-0.210179,-0.207332,0,0
940,234.75,36.376,37.8832,164.538,99.6118,102.641,,,,-0.20017,-0.267919,0,0
942,235.25,36.2373,37.4521,168.419,99.5954,102.215,,,,-0.20017,-0.232148,0,0
944,235.75,36.5678,37.863,168.539,99.5761,101.587,,,,-0.220187,-0.178792,0,0
946,236.25,36.5104,37.9596,174.569,99.5584,101.76,,,,-0.250213,-0.195602,0,0
948,236.75,36.1159,37.4176,169.616,99.5441,101.421,,,,-0.240204,-0.167016,0,0
950,237.25,36.4041,38.0879,167.129,99.5151,101.537,,,,-0.250213,-0.17992,0,0
952,237.75,36.3022,37.7317,170.859,99.4915,102.588,,,,-0.280238,-0.274082,0,0
954,238.25,36.2252,37.4354,166.872,99.4789,101.971,,,,-0.27023,-0.221303,0,0
955,238.5,35.9789,37.8353,168.521,99.4679,101.959,,,,-0.280238,-0.221181,0,0