File: 01_Data/Straw/Cone/Straw_Cone_HF35Scan_181018_R2.csv
Names,Time,Stack TC,Smoke TC,Exh Press,Smoke Comp,Smoke Meas,CO Meter,CO2 Meter,O2 Meter,Sample Mass,Ext Coeff,Start Test,Flame Verif
Chan Gain,,500,500,1,1,1,1,1,1,1,1,1,1
Offset,,0,0,0.14301,0,0,0,0,0,0,0,0,0
Gain,,1,1,25.011,14.3065,15.6922,1,1,1,1.00094,1.047,1,1
Units,sec,C,C,Pa,%,%,%,%,%,g,/m,,
Baseline,,40.0615,41.7456,167.956,105.052,106.36,0.002629106,0.0506564,20.9569,-0.172036,-0.113628,,
3,0.5,38.5508,40.0929,171.848,105.031,106.743,0.002580689,0.0514237,20.9551,933.205,-0.148549,0,0
6,1.25,38.3543,40.4866,167.934,105.043,106.414,0.002537764,0.0515218,20.955,932.745,-0.119126,0,0
9,2,39.1762,40.0332,163.413,105.04,106.714,0.002501464,0.0515389,20.9549,933.666,-0.145191,0,0
12,2.75,38.7966,40.3811,166.281,105.047,106.895,0.002466436,0.0515581,20.955,933.075,-0.160226,0,0
15,3.5,39.1777,40.2283,170.666,105.036,105.858,0.002470759,0.0515836,20.9551,933.545,-0.0716259,0,0
18,4.25,39.6553,40.4633,165.304,105.049,105.327,0.002503987,0.0516021,20.9551,933.465,-0.0243294,0,0
21,5,38.917,41.1778,167.302,105.053,105.679,0.002579639,0.0516156,20.9551,933.155,-0.054588,0,0
24,5.75,39.0002,40.7323,168.917,105.045,105.702,0.002724538,0.0516455,20.9552,933.325,-0.0572691,0,0
27,6.5,39.0947,41.3324,169.566,105.048,104.94,0.00290272,0.0517685,20.955,933.135,0.009396567,0,0
30,7.25,39.4834,41.0595,164.628,105.046,105.182,0.003103795,0.05197249,20.9544,933.145,-0.0119349,0,0
33,8,39.0998,41.1289,166.875,105.053,104.793,0.003319209,0.0522737,20.954,933.265,0.0227335,0,0
36,8.75,39.2858,41.4091,166.273,105.051,103.505,0.003554898,0.0525584,20.9537,933.145,0.136177,0,0
39,9.5,39.3858,41.9003,166.155,105.048,103.96,0.003861211,0.0529109,20.9535,933.215,0.0956348,0,0
42,10.25,39.8821,41.7151,162.852,105.04,102.34,0.004276313,0.0533332,20.9529,933.135,0.239155,0,0
45,11,39.6949,41.2647,167.495,105.044,102.103,0.004748452,0.0538388,20.9521,933.075,0.26084,0,0
48,11.75,39.9127,42.1431,165.096,105.057,102.435,0.005164915,0.054425,20.9511,933.095,0.232177,0,0
51,12.5,39.4527,41.6442,163.445,105.047,101.588,0.005697269,0.0551323,20.9499,933.005,0.30757,0,0
54,13.25,39.4024,42.0477,166.082,105.047,101.821,0.006215186,0.0560557,20.9467,933.025,0.286432,0,0
57,14,39.6926,42.2811,166.193,105.049,101.975,0.006479898,0.0572219,20.9444,933.005,0.272768,0,0
60,14.75,40.0345,41.948,165.196,105.051,100.384,0.006777419,0.0609116,20.9331,932.905,0.417406,0,0
63,15.5,40.1913,42.1244,159.777,105.053,104.528,0.006925035,0.06802468,20.9211,932.855,0.0459731,0,0
66,16.25,39.9032,41.7956,149.571,105.042,106.576,0.006914184,0.07870397,20.8938,932.765,-0.133203,0,1
69,17,40.4811,43.1076,160.472,105.048,106.755,0.006788455,0.0899334,20.8707,932.685,-0.14801,0,1
72,17.75,41.3201,43.9328,152.037,105.054,107.197,0.006601925,0.102907,20.8483,932.795,-0.185462,0,1
75,18.5,41.5959,45.6312,159.343,105.047,107.336,0.0063896,0.12082,20.8277,932.424,-0.198002,0,1
78,19.25,42.9362,45.9751,163.387,105.037,107.579,0.006163419,0.135537,20.8109,932.204,-0.219555,0,1
81,20,42.7397,47.1595,158.766,105.04,105.67,0.005981214,0.149101,20.7973,932.665,-0.0549046,0,1
84,20.75,43.8336,47.1583,154.246,105.043,108.138,0.00585113,0.162038,20.7862,932.344,-0.266766,0,1
87,21.5,43.6782,48.1081,156.342,105.036,107.894,0.005773615,0.172296,20.7774,932.384,-0.246531,0,0
90,22.25,43.8966,49.0675,160.3,105.029,107.049,0.005736359,0.181846,20.7711,932.374,-0.174992,0,0
93,23,44.9049,48.9897,160.309,105.046,105.744,0.005742122,0.18993,20.7658,932.084,-0.0608117,0,0
96,23.75,45.3202,49.6199,162.829,105.042,106.086,0.005757312,0.197152,20.762,932.094,-0.09080828,0,0
99,24.5,44.9944,50.7182,158.776,105.03,107.026,0.005768385,0.202983,20.7592,931.964,-0.172982,0,0
102,25.25,45.0115,50.8894,159.468,105.038,105.645,0.005780308,0.208201,20.7569,931.864,-0.0528887,0,0
105,26,45.44,51.0816,157.197,105.041,106.754,0.005781517,0.213183,20.755,931.914,-0.148536,0,0
108,26.75,46.438,51.1911,158.268,105.048,106.107,0.005766799,0.217316,20.7516,931.784,-0.0921363,0,0
111,27.5,46.3703,52.0796,161.22,105.042,105.705,0.005731928,0.221189,20.75,931.754,-0.0577478,0,0
114,28.25,46.1888,52.8345,159.882,105.037,106.612,0.005656536,0.225483,20.7474,931.684,-0.136717,0,0
117,29,46.9848,52.5975,160.384,105.042,105.544,0.005557679,0.230168,20.7447,931.564,-0.0437982,0,0
120,29.75,47.4681,53.1595,155.394,105.051,106.429,0.005485613,0.233942,20.7423,931.544,-0.119723,0,0
123,30.5,47.4205,54.0602,154.251,105.052,107.293,0.005402919,0.236301,20.7406,931.453,-0.193896,0,0
126,31.25,47.2504,54.4304,159.011,105.034,105.464,0.005333025,0.239259,20.7393,931.373,-0.0375618,0,0
129,32,47.6978,54.2831,159.063,105.037,105.894,0.005272917,0.241812,20.7384,931.353,-0.074589,0,0
132,32.75,48.2411,54.5446,154.922,105.041,107.327,0.005220447,0.243877,20.7389,931.253,-0.19772,0,0
135,33.5,48.5539,55.3342,158.441,105.045,105.736,0.005170672,0.245337,20.7396,931.193,-0.060227,0,0
138,34.25,48.4063,55.9186,161.852,105.047,106.571,0.00512543,0.246324,20.7405,931.113,-0.132291,0,0
141,35,48.405,56.1052,158.356,105.033,106.992,0.005085535,0.246859,20.7423,931.083,-0.169755,0,0
144,35.75,48.6946,55.9177,157.913,105.053,106.61,0.00503533,0.24702,20.7439,931.003,-0.135137,0,0
147,36.5,48.9165,56.305,158.665,105.043,106.532,0.004989727,0.246881,20.7455,930.923,-0.129288,0,0
150,37.25,49.1075,56.0572,154.117,105.043,107.527,0.004927694,0.246334,20.7466,930.893,-0.214684,0,0
153,38,49.227,56.8222,159.839,105.034,106.855,0.0048702,0.245786,20.7474,930.853,-0.157835,0,0
156,38.75,49.7352,56.4464,160.777,105.047,106.032,0.004841967,0.245131,20.7489,930.793,-0.0857405,0,0
159,39.5,49.699,57.007,159.716,105.05,105.953,0.004842502,0.244242,20.7508,930.743,-0.0785922,0,0
162,40.25,49.2736,57.0277,160.178,105.045,105.448,0.00485998,0.243419,20.753,930.643,-0.0351518,0,0
165,41,49.4445,57.2739,160.926,105.039,106.89,0.004886546,0.242267,20.7554,930.583,-0.16042,0,0
168,41.75,49.927,57.331,163.387,105.05,107.015,0.004922346,0.240968,20.7584,930.513,-0.170198,0,0
171,42.5,49.6118,57.5857,162.252,105.048,107.626,0.00496159,0.23964,20.7615,930.463,-0.222647,0,0
174,43.25,49.8697,56.7724,174.007,105.038,106.668,0.005012678,0.238038,20.7645,930.412,-0.141387,0,0
177,44,49.7722,56.9835,161.823,105.032,106.402,0.00509799,0.236302,20.7669,930.342,-0.11905,0,0
180,44.75,49.5596,57.0729,159.089,105.04,106.677,0.005196874,0.234531,20.769,930.292,-0.142097,0,0
183,45.5,50.1237,56.5695,160.672,105.04,105.633,0.005296662,0.232679,20.7712,930.212,-0.051699,0,0
186,46.25,50.0031,56.8839,159.166,105.051,106.667,0.005375189,0.231129,20.773,930.182,-0.140159,0,0
189,47,49.7426,57.1524,160.875,105.034,106.254,0.005427808,0.229658,20.7748,930.122,-0.106074,0,0
192,47.75,50.1645,56.4492,160.408,105.043,106.756,0.005454039,0.228278,20.776,930.072,-0.148589,0,0
195,48.5,49.6962,56.8509,159.914,105.044,106.341,0.005473163,0.226993,20.7769,930.032,-0.112647,0,0
198,49.25,49.6214,57.1312,156.198,105.045,106.525,0.005443203,0.225804,20.7779,929.972,-0.128478,0,0
201,50,49.9691,56.4774,159.81,105.043,106.419,0.005405976,0.224518,20.7787,929.912,-0.119502,0,0
204,50.75,50.2524,56.4313,161.123,105.04,106.045,0.005372277,0.223402,20.7812,929.842,-0.087395,0,0
207,51.5,49.9337,56.5686,158.182,105.05,105.809,0.005340021,0.221946,20.783,929.782,-0.0661651,0,0
210,52.25,49.5647,56.8391,159.447,105.033,107.042,0.005318288,0.220612,20.7843,929.742,-0.173992,0,0
213,53,49.6135,56.9986,161.83,105.036,106.833,0.005311097,0.219003,20.7859,929.672,-0.15579,0,0
216,53.75,49.9891,56.2343,161.94,105.035,107.181,0.005333279,0.217625,20.7879,929.622,-0.185788,0,0
219,54.5,50.0981,56.335,160.112,105.043,106.404,0.005370618,0.216271,20.7898,929.582,-0.118299,0,0
222,55.25,49.5923,56.6891,161.09,105.044,105.709,0.005411924,0.214768,20.7911,929.542,-0.0579279,0,0
225,56,49.724,55.894,162.2,105.042,105.129,0.005450693,0.213326,20.7927,929.502,-0.007594199,0,0
228,56.75,50.1915,56.3845,160.871,105.045,106.175,0.005480877,0.211908,20.7943,929.442,-0.0982876,0,0
231,57.5,49.3527,56.391,161.833,105.042,106.913,0.005503701,0.210501,20.7957,929.392,-0.162209,0,0
234,58.25,49.4273,55.6577,163.335,105.04,106.028,0.005531889,0.20904,20.7971,929.362,-0.0859847,0,0
237,59,49.3382,55.6789,160.375,105.049,106.554,0.005574691,0.207686,20.7983,929.301,-0.130693,0,0
240,59.75,49.8762,55.537,160.079,105.035,106.156,0.00561328,0.206574,20.7992,929.251,-0.0975081,0,0
243,60.5,49.7419,56.1599,160.113,105.04,106.851,0.005671632,0.205419,20.7999,929.221,-0.15701,0,0
246,61.25,49.5136,56.2954,157.691,105.047,107.815,0.005720253,0.20443,20.8003,929.151,-0.238851,0,0
249,62,49.2112,55.7241,161.559,105.042,106.521,0.005766099,0.203197,20.8013,929.111,-0.128417,0,0
252,62.75,49.8041,55.551,158.212,105.035,106.996,0.00581052,0.202052,20.8029,929.041,-0.169893,0,0
255,63.5,50.132,55.7524,164.287,105.042,105.607,0.005856396,0.200796,20.8046,929.011,-0.0492517,0,0
258,64.25,49.6734,56.0422,164.269,105.036,105.941,0.005895592,0.199496,20.8063,928.971,-0.0788136,0,0
261,65,49.4302,55.6004,160.675,105.038,106.736,0.005964654,0.198196,20.8079,928.931,-0.14724,0,0
264,65.75,49.2957,55.2907,164.737,105.039,106.583,0.006056637,0.196703,20.8093,928.891,-0.134009,0,0
267,66.5,49.9174,55.25,162.778,105.048,106.24,0.006165373,0.195232,20.811,928.851,-0.103652,0,0
270,67.25,49.5241,55.7178,158.946,105.043,106.226,0.006332811,0.193626,20.813,928.781,-0.102831,0,0
273,68,49.6602,55.5584,161.11,105.049,106.457,0.006485407,0.192228,20.8149,928.751,-0.12231,0,0
276,68.75,49.901,55.151,159.148,105.042,105.955,0.006648863,0.190468,20.8162,928.681,-0.0794828,0,0
279,69.5,49.3856,55.2943,166.957,105.048,106.985,0.006842576,0.188734,20.8177,928.611,-0.167843,0,0
282,70.25,49.3879,55.0017,160.376,105.044,106.422,0.007006223,0.187279,20.8189,928.591,-0.119714,0,0
285,71,49.8778,54.6537,157.224,105.032,107.097,0.007163876,0.185499,20.8203,928.591,-0.17883,0,0
288,71.75,49.6269,55.0452,159.654,105.039,106.581,0.007278805,0.183834,20.822,928.531,-0.133842,0,0
291,72.5,49.0171,55.113,160.532,105.035,107.429,0.007381946,0.182349,20.8234,928.461,-0.206978,0,0
294,73.25,48.9796,54.8559,157.454,105.04,106.605,0.007458156,0.181072,20.8245,928.461,-0.13579,0,0
297,74,48.865,54.7631,163.866,105.044,105.976,0.007515459,0.18014,20.8253,928.401,-0.0810771,0,0
300,74.75,49.3468,54.2516,160.133,105.039,106.573,0.007568294,0.179108,20.8259,928.331,-0.133181,0,0
303,75.5,49.3731,54.2266,162.088,105.037,106.904,0.007626202,0.178205,20.8263,928.301,-0.161848,0,0
306,76.25,48.7111,54.7727,159.869,105.05,106.311,0.007693025,0.177121,20.8266,928.23,-0.109549,0,0
309,77,49.3728,54.5998,162.484,105.04,107.311,0.007746769,0.176263,20.8268,928.2,-0.196484,0,0
312,77.75,49.4477,54.1532,159.767,105.032,106.8694,0.007819603,0.175609,20.8269,928.14,-0.159263,0,0
315,78.5,49.0519,54.0801,160.594,105.033,106.201,0.007891071,0.175132,20.8271,928.07,-0.101593,0,0
318,79.25,49.0222,54.0355,162.648,105.034,107.011,0.007945109,0.174825,20.8271,928.03,-0.171206,0,0
321,80,49.6018,54.0807,162.485,105.037,106.351,0.007985329,0.174681,20.8269,927.98,-0.114165,0,0
324,80.75,49.3924,53.7215,160.856,105.046,106.564,0.00801465,0.174513,20.8268,927.94,-0.131786,0,0
327,81.5,49.2133,54.1067,158.627,105.016,106.94,0.008045739,0.174334,20.827,927.89,-0.166766,0,0
330,82.25,48.8465,54.0097,160.898,105.029,106.212,0.00808072,0.174105,20.8275,927.88,-0.102892,0,0
333,83,48.7885,53.8164,159.638,105.026,106.852,0.008120205,0.173734,20.8279,927.83,-0.158356,0,0
336,83.75,49.2679,53.8311,162.345,105.028,106.518,0.0081789,0.173378,20.8288,927.76,-0.12943,0,0
339,84.5,49.0612,54.2625,160.607,105.016,106.734,0.008219017,0.172944,20.8295,927.73,-0.148984,0,0
342,85.25,48.9597,53.6312,153.157,105.006,107.372,0.008265364,0.172371,20.8306,927.68,-0.204625,0,0
345,86,49.2843,53.8414,160.424,105.017,107.291,0.008338035,0.171751,20.8313,927.63,-0.196745,0,0
348,86.75,48.7973,54.2244,165.196,105.027,106.349,0.008423972,0.170934,20.8319,927.61,-0.114839,0,0
351,87.5,48.9644,53.3359,163.354,104.999,107.271,0.008514634,0.170581,20.8323,927.56,-0.196668,0,0
354,88.25,49.5345,53.6988,158.514,105.011,106.898,0.00859919,0.170101,20.8326,927.51,-0.163525,0,0
357,89,48.6663,53.7309,162.65,105.005,106.084,0.008665629,0.16963,20.8328,927.49,-0.0939264,0,0
360,89.75,48.3745,53.8685,164.248,105.002,107.092,0.008708808,0.169017,20.8332,927.42,-0.181054,0,0
363,90.5,48.9157,53.3552,162.076,104.996,106.888,0.008712525,0.168485,20.8335,927.37,-0.1639584,0,0
366,91.25,49.0562,53.8373,164.875,104.991,106.183,0.008700903,0.167951,20.8337,927.31,-0.103686,0,0
369,92,48.7138,54.0253,162.275,104.99,107.088,0.008667921,0.167583,20.8339,927.31,-0.181715,0,0
372,92.75,48.5282,53.1699,156.977,104.985,106.403,0.008652067,0.167462,20.834,927.28,-0.123178,0,0
375,93.5,49.2906,53.6141,156.688,104.98,106.665,0.008654514,0.167474,20.8341,927.219,-0.146218,0,0
378,94.25,48.8437,53.6181,158.383,104.974,106.408,0.008711812,0.167542,20.8341,927.149,-0.124584,0,0
381,95,48.9698,53.7618,161.583,104.97,107.114,0.008753582,0.167522,20.8342,927.109,-0.18569,0,0
384,95.75,49.1232,53.1173,166.514,104.965,105.328,0.008889616,0.167385,20.8342,927.079,-0.03174489,0,0
387,96.5,48.679,53.6667,164.133,104.966,106.804,0.009008285,0.167158,20.8347,927.059,-0.159471,0,0
390,97.25,49.3913,53.5486,155.293,104.953,107.364,0.009128137,0.166773,20.8358,926.989,-0.208592,0,0
393,98,48.7167,53.243,157.221,104.941,106.528,0.00921551,0.166266,20.8366,926.949,-0.137817,0,0
396,98.75,48.7934,53.6329,162.064,104.942,106.422,0.009251906,0.165509,20.8372,926.899,-0.128571,0,0
399,99.5,48.5535,52.9674,158.209,104.937,105.598,0.009266799,0.16486,20.8377,926.819,-0.0577489,0,0
402,100.25,49.253,53.1471,158.107,104.927,105.732,0.009236728,0.164455,20.838,926.809,-0.0701645,0,0
405,101,48.4955,53.6197,161.149,104.923,105.913,0.009185055,0.164188,20.8382,926.739,-0.08621572,0,0
408,101.75,49.1814,52.8766,159.469,104.919,106.127,0.009126349,0.163994,20.8384,926.699,-0.105065,0,0
411,102.5,48.4301,53.6271,163.625,104.922,107.699,0.009067972,0.163845,20.8385,926.679,-0.239974,0,0
414,103.25,48.8534,52.6961,163.298,104.898,106.42,0.009027999,0.163724,20.8386,926.679,-0.132307,0,0
417,104,48.6313,53.449,162.473,104.896,104.769,0.009014634,0.163559,20.8387,926.629,0.0111157,0,0
420,104.75,49.1165,52.9628,155.371,104.898,106.828,0.009046572,0.163361,20.8383,926.579,-0.167411,0,0
423,105.5,49.0211,52.7079,157.625,104.879,106.856,0.009097138,0.163084,20.8378,926.559,-0.171442,0,0
426,106.25,48.585,53.2551,157.938,104.877,106.719,0.009145633,0.162989,20.8375,926.539,-0.159933,0,0
429,107,48.6693,52.7344,160.969,104.86,106.463,0.009175139,0.163044,20.837,926.499,-0.139391,0,0
432,107.75,48.3522,53.3355,161.075,104.853,106.124,0.00917364,0.163217,20.8363,926.469,-0.110669,0,0
435,108.5,48.4178,52.7779,163.089,104.85,105.698,0.009137467,0.163612,20.8357,926.439,-0.073977,0,0
438,109.25,48.4372,52.912,159.772,104.836,106.624,0.00908343,0.164116,20.8351,926.399,-0.155323,0,0
441,110,49.1043,52.7515,162.873,104.822,106.724,0.008996733,0.164575,20.8343,926.329,-0.1651254,0,0
444,110.75,48.8779,52.5455,162.277,104.831,105.701,0.008889127,0.165179,20.8337,926.299,-0.07590922,0,0
447,111.5,48.9815,52.777,165.194,104.808,105.723,0.00879124,0.165648,20.833,926.269,-0.0798124,0,0
450,112.25,48.9047,53.263,160.239,104.796,106.63,0.008686635,0.166038,20.8321,926.229,-0.159379,0,0
453,113,48.6807,52.9056,159.329,104.795,106.064,0.008560484,0.166458,20.8315,926.169,-0.110571,0,0
456,113.75,48.6785,53.1311,160.723,104.799,106.085,0.008468521,0.166914,20.831,926.068,-0.112016,0,0
459,114.5,48.7067,52.8787,162.068,104.793,106.517,0.008368242,0.167404,20.8306,926.038,-0.149872,0,0
462,115.25,49.0389,53.4358,157.731,104.785,105.854,0.008293199,0.167896,20.8302,925.998,-0.0932318,0,0
465,116,48.8197,53.0049,162.465,104.776,105.975,0.008233578,0.168313,20.8294,925.978,-0.104462,0,0
468,116.75,49.1073,53.1014,165.977,104.781,106.81,0.008183121,0.168713,20.8289,925.948,-0.176175,0,0
471,117.5,49.5338,53.4043,161.255,104.768,107.189,0.008138039,0.169055,20.8285,925.898,-0.209802,0,0
474,118.25,48.3454,53.3618,160.498,104.767,106.308,0.008105176,0.169389,20.8282,925.858,-0.134064,0,0
477,119,49.4606,53.2077,167.048,104.76,106.697,0.008083981,0.169574,20.8281,925.838,-0.168251,0,0
480,119.75,48.7596,53.8224,162.233,104.771,105.982,0.008083364,0.169683,20.8281,925.828,-0.105541,0,0
483,120.5,49.2312,52.7317,159.551,104.758,105.892,0.00810828,0.16975,20.8281,925.788,-0.0988869,0,0
486,121.25,48.7769,53.713,158.899,104.747,107.39,0.008178904,0.169975,20.828,925.728,-0.228857,0,0
489,122,48.9306,53.0324,155.918,104.744,106.51,0.008252753,0.170214,20.8278,925.688,-0.153577,0,0
492,122.75,49.064,53.3748,158.965,104.742,106.454,0.008362062,0.170408,20.8276,925.658,-0.148936,0,0
495,123.5,48.7668,53.1091,159.008,104.73,107.041,0.008447895,0.170505,20.8275,925.628,-0.200404,0,0
498,124.25,49.445,53.1665,166.808,104.726,105.387,0.008520979,0.170503,20.8274,925.568,-0.0577951,0,0
501,125,48.7201,53.5419,156.996,104.727,106.295,0.008588129,0.170542,20.8274,925.548,-0.136511,0,0
504,125.75,48.8798,53.3693,165.657,104.713,107.31,0.008633188,0.170587,20.8273,925.518,-0.224919,0,0
507,126.5,49.0194,53.0199,159.101,104.721,106.59,0.008655159,0.170736,20.8273,925.468,-0.162462,0,0
510,127.25,49.1374,53.4917,164.145,104.709,105.357,0.008655415,0.170858,20.8273,925.428,-0.0566599,0,0
513,128,49.1347,53.4438,159.979,104.708,106.432,0.008655602,0.170974,20.8273,925.428,-0.14998,0,0
516,128.75,48.6763,53.5465,160.71,104.701,106.089,0.00860304,0.171096,20.8272,925.418,-0.120999,0,0
519,129.5,49.4663,53.144,161.216,104.71,105.824,0.0085414,0.171252,20.8272,925.348,-0.0972397,0,0
522,130.25,49.3366,53.5966,163.116,104.697,106.321,0.008488566,0.171394,20.8272,925.268,-0.141349,0,0
525,131,48.9743,53.8161,160.976,104.689,105.411,0.008453545,0.171421,20.8272,925.238,-0.0631407,0,0
528,131.75,49.3895,53.2499,166.66,104.688,105.499,0.008449404,0.171376,20.8272,925.188,-0.0708877,0,0
531,132.5,49.2425,53.4683,161.23,104.678,106.459,0.008462665,0.171234,20.8272,925.148,-0.154937,0,0
534,133.25,48.7864,53.5416,161.461,104.682,105.732,0.00848458,0.171092,20.8272,925.168,-0.0915862,0,0
537,134,48.762,53.7147,161.214,104.679,106.479,0.008508875,0.17091,20.8277,925.118,-0.156561,0,0
540,134.75,48.8373,53.2848,163.166,104.665,105.749,0.008526587,0.170644,20.8282,925.057,-0.0946548,0,0
543,135.5,49.0844,53.0666,160.781,104.649,106.418,0.008561687,0.170295,20.8285,925.047,-0.153914,0,0
546,136.25,48.9734,53.7595,167.856,104.659,106.582,0.008633985,0.169935,20.8288,925.017,-0.167199,0,0
549,137,49.4055,53.0247,160.378,104.648,106.448,0.00875378,0.169489,20.829,924.967,-0.156674,0,0
552,137.75,49.1866,53.708,162.172,104.645,105.703,0.008921782,0.168787,20.8297,924.957,-0.0924266,0,0
555,138.5,49.1942,53.2407,165.582,104.649,106.035,0.009135989,0.16788,20.831,924.877,-0.120831,0,0
558,139.25,49.1851,53.5271,165.469,104.647,106.378,0.009382703,0.166818,20.8331,924.857,-0.150595,0,0
561,140,48.7551,53.4456,163.722,104.648,106.002,0.009650537,0.165613,20.8352,924.857,-0.118086,0,0
564,140.75,48.913,52.8279,165.054,104.63,106.259,0.00995751,0.164311,20.8368,924.817,-0.141831,0,0
567,141.5,49.6395,53.0543,162.906,104.64,107.034,0.0101813,0.162951,20.8388,924.767,-0.207795,0,0
570,142.25,48.808,53.6054,158.163,104.652,106.063,0.0103821,0.16127,20.8406,924.747,-0.12297,0,0
573,143,48.897,52.5329,162.787,104.642,106.491,0.0105929,0.159616,20.8423,924.707,-0.160808,0,0
576,143.75,48.8911,52.5798,163.835,104.634,106.14,0.0107583,0.158227,20.8436,924.677,-0.131174,0,0
579,144.5,48.8957,52.411,164.486,104.632,106.062,0.0108839,0.157215,20.8446,924.637,-0.124688,0,0
582,145.25,48.4016,52.0996,162.272,104.64,106.264,0.0109755,0.155715,20.8461,924.627,-0.141443,0,0
585,146,48.2185,52.7666,158.846,104.627,105.369,0.011017,0.154621,20.8473,924.617,-0.0648286,0,0
588,146.75,48.1934,52.7657,162.621,104.624,106.645,0.011016,0.153462,20.8486,924.587,-0.175669,0,0
591,147.5,48.5046,52.6594,159.977,104.623,106.232,0.0109873,0.152407,20.8496,924.587,-0.140167,0,0
594,148.25,48.2729,51.8006,161.159,104.626,105.764,0.01094179,0.151451,20.8503,924.537,-0.0993954,0,0
597,149,48.7186,51.8495,165.091,104.629,107.585,0.0108983,0.150515,20.8508,924.527,-0.255929,0,0
600,149.75,48.0066,51.8507,164.466,104.626,106.223,0.0108489,0.149764,20.8516,924.507,-0.139109,0,0
603,150.5,48.0348,52.1008,162.906,104.624,106.367,0.0107878,0.148988,20.8524,924.477,-0.151676,0,0
606,151.25,47.976,51.4866,166.881,104.632,106.547,0.0107158,0.148339,20.8529,924.457,-0.166562,0,0
609,152,48.5696,51.4352,161.248,104.624,105.878,0.0106708,0.147721,20.8532,924.417,-0.109402,0,0
612,152.75,48.6436,51.3897,165.569,104.613,106.797,0.0105854,0.147005,20.8536,924.387,-0.189729,0,0
615,153.5,47.743,51.8811,165.058,104.62,106.514,0.0105133,0.146222,20.8544,924.387,-0.164748,0,0
618,154.25,47.487,51.4146,161.413,104.614,105.428,0.0104565,0.1454,20.8553,924.357,-0.0711917,0,0
621,155,47.6108,51.3356,163.877,104.63,105.521,0.0104152,0.144634,20.8563,924.337,-0.0779042,0,0
624,155.75,48.233,50.9711,167.591,104.617,105.955,0.010385,0.14356,20.8576,924.317,-0.116777,0,0
627,156.5,47.9128,51.3814,157.976,104.616,105.766,0.010377,0.142455,20.8589,924.277,-0.100444,0,0
630,157.25,47.4014,50.9939,163.825,104.622,105.732,0.0103692,0.141331,20.8602,924.257,-0.0968735,0,0
633,158,47.369,50.7682,162.619,104.617,106.501,0.01035651,0.140215,20.8615,924.247,-0.163936,0,0
636,158.75,47.5188,50.3146,161.728,104.63,106.535,0.0103367,0.139127,20.8629,924.227,-0.16568,0,0
639,159.5,47.7967,50.3938,164.475,104.651,106.037,0.0103111,0.137977,20.8644,924.207,-0.120884,0,0
642,160.25,47.2107,51.0411,161.681,104.664,106.471,0.0102883,0.136812,20.866,924.187,-0.157199,0,0
645,161,47.2362,49.9752,163.474,104.685,105.707,0.0102646,0.135665,20.8677,924.167,-0.0891968,0,0
648,161.75,47.4979,50.3965,164.168,104.698,105.722,0.0102362,0.134473,20.869,924.167,-0.0894555,0,0
651,162.5,46.6596,50.2621,163.266,104.711,106.544,0.01021552,0.133277,20.87,924.137,-0.159339,0,0
654,163.25,47.7001,49.9042,165.668,104.725,105.814,0.0101781,0.132109,20.8712,924.107,-0.0950264,0,0
657,164,47.4588,49.7421,164.822,104.758,106.459,0.0101782,0.130954,20.8729,924.087,-0.147894,0,0
660,164.75,47.1785,50.4937,166.003,104.767,106.214,0.01019,0.129747,20.8741,924.036,-0.125993,0,0
663,165.5,46.7513,50.2794,164.767,104.782,105.989,0.0102738,0.128464,20.8756,924.057,-0.10513,0,0
666,166.25,47.1106,49.6442,164.442,104.807,106.269,0.0104636,0.127127,20.877,924.057,-0.127231,0,0
669,167,46.9389,49.6695,165.328,104.824,106.032,0.0107615,0.125467,20.8784,924.026,-0.105232,0,0
672,167.75,46.596,49.7632,163.372,104.843,105.948,0.0110711,0.123283,20.8813,924.017,-0.0963225,0,0
675,168.5,46.5128,49.2884,168.055,104.866,105.594,0.0113362,0.121691,20.8843,924.017,-0.0635657,0,0
678,169.25,46.8219,48.887,164.462,104.882,105.04,0.0116277,0.119679,20.8869,923.987,-0.0138333,0,0
681,170,46.553,49.5251,167.717,104.902,105.767,0.0118403,0.117637,20.8894,923.956,-0.07545884,0,0
684,170.75,46.1635,48.9808,163.297,104.916,106.944,0.0120683,0.115783,20.8912,923.936,-0.175801,0,0
687,171.5,46.549,48.2254,163.665,104.929,106.4,0.0122655,0.114041,20.8925,923.926,-0.127896,0,0
690,172.25,46.4308,48.757,168.207,104.947,106.031,0.01242113,0.112606,20.8941,923.906,-0.0943268,0,0
693,173,45.9691,48.7566,166.849,104.971,106.425,0.0125396,0.111278,20.8952,923.906,-0.126342,0,0
696,173.75,46.3596,48.3559,166.164,104.976,107.222,0.0126035,0.11001,20.8961,923.896,-0.194433,0,0
699,174.5,45.5037,48.3454,165.745,105.008,106.456,0.012605,0.108855,20.8965,923.886,-0.125817,0,0
702,175.25,45.645,48.6332,168.097,105.018,106.247,0.01256674,0.107838,20.897,923.876,-0.106907,0,0
705,176,45.8302,47.7865,166.067,105.042,106.189,0.012407,0.10694,20.8974,875.191,-0.099759,0,0
708,176.75,45.9597,47.4067,164.689,105.075,105.819,0.0122343,0.106122,20.8979,154.875,-0.0648242,0,0
711,177.5,45.7031,47.6763,163.316,105.092,105.836,0.011871,0.10559,20.8986,-0.240225,-0.0648325,0,0
714,178.25,45.0893,47.735,165.979,105.114,107.114,0.0113836,0.104519,20.8992,55.5521,-0.173134,0,0
717,179,45.9485,47.7955,163.098,105.137,106.12,0.0108208,0.103545,20.9013,-0.200188,-0.08547198,0,0
720,179.75,45.142,47.3618,162.297,105.143,107.157,0.0100637,0.101594,20.9047,-0.150141,-0.174311,0,0
723,180.5,45.8795,47.469,167.066,105.156,106.618,0.009298621,0.0995046,20.9092,-0.16015,-0.126793,0,0
726,181.25,45.0482,47.8925,165.061,105.161,106.272,0.008557575,0.0968398,20.915,-0.140131,-0.0964652,0,0
729,182,44.6504,47.0697,167.012,105.179,106.744,0.007859244,0.0935718,20.9196,-0.150141,-0.13566,0,0
732,182.75,45.3417,46.5391,166.746,105.193,105.792,0.00715248,0.0904296,20.9238,-0.150141,-0.052119,0,0
735,183.5,44.7403,46.2889,168.639,105.189,106.831,0.006637248,0.0878151,20.9268,-0.150141,-0.142235,0,0
738,184.25,44.2839,46.5128,167.115,105.209,106.543,0.006124411,0.0851938,20.929,-0.150141,-0.115743,0,0
741,185,44.6133,45.9299,168.189,105.207,106.959,0.005657754,0.08297462,20.9312,-0.16015,-0.151699,0,0
744,185.75,44.6537,45.9915,164.583,105.227,106.702,0.00525892,0.0812254,20.9328,-0.16015,-0.12784,0,0
747,186.5,44.1077,45.8271,171.852,105.237,105.479,0.004872619,0.0795292,20.9338,-0.17016,-0.02104,0,0
750,187.25,44.2575,46.2423,165.16,105.239,105.832,0.00454321,0.0780628,20.9351,-0.16015,-0.05160594,0,0
753,188,44.2473,45.6113,168.517,105.244,106.381,0.004282697,0.076601,20.9361,-0.16015,-0.0986965,0,0
756,188.75,43.9512,45.4446,168.149,105.269,106.693,0.004058602,0.0751766,20.9374,-0.17016,-0.123396,0,0
759,189.5,44.0683,45.7043,173.456,105.262,106.141,0.003836789,0.0737966,20.9385,-0.190178,-0.0763144,0,0
762,190.25,43.5536,45.6883,162.953,105.261,106.426,0.003628824,0.072468,20.9395,-0.180169,-0.101055,0,0
765,191,43.5364,45.4525,167.907,105.262,106.788,0.003477217,0.0710069,20.9408,-0.190178,-0.132127,0,0
768,191.75,43.9007,45.713,174.523,105.267,106.629,0.003363974,0.0699417,20.9418,-0.190178,-0.118106,0,0
771,192.5,43.8876,44.6778,168.539,105.262,106.161,0.003308133,0.0684362,20.9425,-0.190178,-0.0780544,0,0
774,193.25,43.8348,44.6828,162.497,105.277,106.651,0.003288859,0.0673386,20.9435,-0.190178,-0.119086,0,0
777,194,43.0901,45.0281,168.843,105.277,106.897,0.003291985,0.0661561,20.9444,-0.16015,-0.140256,0,0
780,194.75,43.1194,45.0665,168.297,105.291,106.623,0.003295172,0.0651463,20.9456,-0.17016,-0.115395,0,0
783,195.5,43.3461,44.2416,165.426,105.295,106.767,0.003291853,0.0641576,20.9467,-0.16015,-0.127578,0,0
786,196.25,42.7195,44.8511,165.304,105.287,106.758,0.003279128,0.0631276,20.948,-0.180169,-0.127443,0,0
789,197,43.3469,44.1618,171.006,105.302,107.449,0.003250769,0.062256,20.9498,-0.180169,-0.185405,0,0
792,197.75,43.1668,43.8025,166.915,105.316,107.328,0.00322196,0.0614141,20.9511,-0.180169,-0.173784,0,0
795,198.5,42.6695,44.0885,164.733,105.319,106.706,0.003157088,0.0606192,20.952,-0.17016,-0.120133,0,0
798,199.25,42.8039,43.8549,165.466,105.331,106.67,0.003075042,0.0599728,20.9527,-0.200188,-0.116013,0,0
801,200,42.7662,44.3507,164.517,105.343,107.269,0.00298778,0.0593869,20.9531,-0.210197,-0.166382,0,0
804,200.75,43.3772,44.1329,166.547,105.347,106.563,0.002910578,0.0587418,20.9535,-0.16015,-0.105364,0,0
807,201.5,43.011,43.8854,160.061,105.346,107.292,0.002865172,0.0581978,20.9538,-0.210197,-0.168086,0,0
810,202.25,42.6374,44.0974,169.303,105.349,106.423,0.00283909,0.0576753,20.954,-0.210197,-0.0931527,0,0
813,203,42.5243,44.3477,163.451,105.361,106.582,0.002832077,0.0572036,20.9541,-0.200188,-0.105836,0,0
816,203.75,42.5767,43.9198,168.528,105.352,106.505,0.002837838,0.0567961,20.9542,-0.190178,-0.099992,0,0
819,204.5,43.0988,43.5931,170.94,105.36,106.501,0.002842038,0.0564719,20.9543,-0.190178,-0.0989356,0,0
822,205.25,42.7771,42.9338,170.781,105.369,106.833,0.002852728,0.0560904,20.9543,-0.180169,-0.1267896,0,0
825,206,42.3367,43.0276,169.513,105.358,106.581,0.002865782,0.0557397,20.9544,-0.200188,-0.105979,0,0
828,206.75,42.2244,43.5922,165.66,105.36,106.762,0.002878731,0.0554841,20.9544,-0.200188,-0.121453,0,0
831,207.5,42.7164,44.0457,162.623,105.373,106.969,0.002877295,0.055207,20.9544,-0.210197,-0.138049,0,0
834,208.25,43.1205,43.2954,167.234,105.363,106.459,0.002868223,0.055005,20.9544,-0.200188,-0.0950712,0,0
837,209,42.8428,43.2885,165.197,105.377,107.224,0.002847887,0.0547852,20.9544,-0.210197,-0.159637,0,0
840,209.75,42.2612,43.8357,162.394,105.373,106.555,0.002814033,0.0545487,20.9544,-0.220206,-0.102497,0,0
843,210.5,42.8604,43.7046,164.219,105.381,106.019,0.002777922,0.054337,20.9545,-0.190178,-0.0554311,0,0
846,211.25,42.3806,43.812,171.09,105.381,106.606,0.002746723,0.05417129,20.9545,-0.230216,-0.10611,0,0
849,212,42.1715,43.3933,172.718,105.379,106.474,0.002723979,0.054025,20.9545,-0.200188,-0.0949861,0,0
852,212.75,42.3945,43.3363,164.972,105.38,106.599,0.002685667,0.0539009,20.9545,-0.220206,-0.105647,0,0
855,213.5,42.3745,43.082,164.793,105.38,107.159,0.002657738,0.053799,20.9548,-0.200188,-0.15375,0,0
858,214.25,42.4832,43.5406,166.63,105.399,107.439,0.002643392,0.0537119,20.9554,-0.180169,-0.1760571,0,0
861,215,42.2878,42.9407,164.91,105.39,107.153,0.00264322,0.0536431,20.9561,-0.180169,-0.152422,0,0
864,215.75,42.2174,42.8672,167.14,105.396,106.771,0.002654521,0.053546,20.9565,-0.180169,-0.119077,0,0
867,216.5,42.0058,43.0863,166.766,105.399,106.687,0.002667632,0.0533952,20.9569,-0.180169,-0.111561,0,0
870,217.25,42.8184,43.3143,167.164,105.395,106.502,0.002690779,0.0532853,20.9572,-0.180169,-0.0959325,0,0
873,218,42.1011,42.8925,164.173,105.399,106.668,0.002710663,0.0531984,20.9573,-0.180169,-0.109909,0,0
876,218.75,41.9032,43.4401,169.185,105.399,106.274,0.002730306,0.0531237,20.9575,-0.150141,-0.0759142,0,0
879,219.5,42.4076,43.252,166.801,105.402,106.656,0.002742616,0.0530329,20.9576,-0.16015,-0.108653,0,0
882,220.25,42.0986,43.0117,169.349,105.401,106.185,0.002748156,0.0529668,20.9576,-0.16015,-0.0680995,0,0
885,221,42.1399,42.7243,165.85,105.408,106.841,0.002746767,0.0529367,20.9577,-0.16015,-0.123945,0,0
888,221.75,41.6391,43.333,166.976,105.398,106.636,0.002743848,0.0528947,20.9575,-0.140131,-0.107263,0,0
891,222.5,42.0862,43.5818,163.502,105.401,107.131,0.002744917,0.0528297,20.957,-0.16015,-0.149545,0,0
894,223.25,42.4182,43.22,166.105,105.407,108.086,0.002752552,0.0527757,20.9572,-0.16015,-0.23051,0,0
897,224,42.1532,42.7863,168.668,105.4,106.947,0.002771716,0.0527249,20.9574,-0.16015,-0.13384,0,0
900,224.75,41.9565,43.0614,167.374,105.406,106.881,0.002789697,0.05268782,20.9575,-0.16015,-0.127593,0,0
903,225.5,41.8746,43.6351,161.765,105.395,106.79,0.002809663,0.0526481,20.9576,-0.180169,-0.120762,0,0
906,226.25,42.3853,43.1431,169.561,105.404,106.308,0.002824218,0.0526204,20.9577,-0.190178,-0.0783928,0,0
909,227,42.3511,42.5991,167.092,105.396,106.673,0.002818521,0.0526117,20.9577,-0.180169,-0.110629,0,0
912,227.75,42.1141,42.8157,171.741,105.413,106.601,0.00280103,0.0526415,20.9577,-0.180169,-0.102958,0,0
915,228.5,41.9829,42.4639,168.516,105.402,106.416,0.002782593,0.05266333,20.9578,-0.180169,-0.0880079,0,0
918,229.25,42.0477,42.7706,170.117,105.403,106.837,0.002750129,0.0526067,20.9578,-0.180169,-0.12411,0,0
921,230,41.651,42.4518,166.443,105.401,105.802,0.002713127,0.0525654,20.9578,-0.180169,-0.034904,0,0
924,230.75,41.8337,42.5781,171.747,105.403,106.395,0.002675456,0.0525353,20.9578,-0.17016,-0.0860339,0,0
927,231.5,42.1119,42.8486,161.723,105.398,106.64,0.002639425,0.0525496,20.9578,-0.180169,-0.107551,0,0
930,232.25,42.0141,42.5499,165.652,105.417,106.251,0.002602296,0.0525474,20.9578,-0.17016,-0.072406,0,0
933,233,41.9178,42.4338,168.264,105.429,106.62,0.002566217,0.0525336,20.9578,-0.180169,-0.103163,0,0
936,233.75,42.2874,42.6253,167.945,105.43,106.963,0.002524504,0.0525121,20.9578,-0.180169,-0.132573,0,0
939,234.5,41.6674,42.5124,168.95,105.439,106.694,0.002494095,0.052424,20.9578,-0.190178,-0.108636,0,0
942,235.25,41.4886,42.5026,164.773,105.44,106.619,0.0024475,0.0523664,20.9578,-0.180169,-0.102089,0,0
945,236,41.4059,42.8186,164.809,105.436,106.987,0.002432558,0.0523359,20.9571,-0.180169,-0.134174,0,0
948,236.75,41.3287,43.0473,167.436,105.43,106.402,0.002430608,0.05233904,20.9568,-0.17016,-0.0842543,0,0
951,237.5,41.0659,42.9492,163.775,105.44,106.907,0.00246093,0.0523522,20.9564,-0.16015,-0.126888,0,0
954,238.25,41.2789,43.0158,165.166,105.436,106.852,0.002482035,0.0523999,20.9561,-0.16015,-0.122495,0,0
957,239,41.6423,42.7429,162.785,105.44,106.131,0.002495709,0.0524509,20.9558,-0.200188,-0.0599939,0,0
960,239.75,41.8329,42.7523,168.165,105.451,106.837,0.002473104,0.052477,20.9557,-0.220206,-0.119889,0,0
963,240.5,41.6871,42.3768,164.309,105.44,107.238,0.002456624,0.0525272,20.9556,-0.200188,-0.155232,0,0
966,241.25,41.2608,43.0708,168.391,105.449,106.999,0.002414748,0.0525981,20.9555,-0.210197,-0.134062,0,0
969,242,41.6691,42.3847,169.217,105.454,106.709,0.002384221,0.0526498,20.9554,-0.210197,-0.108662,0,0
972,242.75,41.5159,42.1113,162.141,105.464,107.078,0.002361966,0.0526875,20.9554,-0.190178,-0.139507,0,0
975,243.5,41.5002,42.0926,170.867,105.468,106.886,0.002359312,0.0526243,20.9553,-0.17016,-0.122603,0,0
978,244.25,41.7733,42.3853,170.578,105.474,106.464,0.002366892,0.0525782,20.9553,-0.17016,-0.0858234,0,0
981,245,41.3335,42.3887,169.397,105.488,106.731,0.002380481,0.0525628,20.9553,-0.200188,-0.107551,0,0
984,245.75,41.8701,42.5993,167.489,105.477,106.987,0.002397239,0.0525515,20.9553,-0.200188,-0.130484,0,0
987,246.5,41.1194,42.8475,168.817,105.483,107,0.002426589,0.0525367,20.9553,-0.190178,-0.13114,0,0
990,247.25,41.0707,42.6938,165.57,105.48,106.976,0.002455289,0.0525144,20.9553,-0.180169,-0.12931,0,0
993,248,41.7476,42.5468,170.782,105.494,107.32,0.002497162,0.0524854,20.9553,-0.16015,-0.157604,0,0
996,248.75,40.7564,42.9429,164.693,105.491,107.376,0.002543636,0.0524522,20.9553,-0.17016,-0.162588,0,0
999,249.5,41.8925,42.4755,165.26,105.496,106.86,0.002589515,0.0524165,20.9553,-0.17016,-0.117948,0,0
1002,250.25,40.9805,42.8274,166.227,105.491,106.516,0.002621055,0.0524287,20.9553,-0.16015,-0.0888083,0,0
1005,251,41.723,42.4325,166.442,105.496,106.594,0.002635215,0.0524538,20.9553,-0.140131,-0.09507291,0,0
1008,251.75,41.8755,42.3748,169.88,105.494,107.388,0.002631823,0.0524358,20.9553,-0.150141,-0.163383,0,0
1011,252.5,41.619,42.1444,164.37,105.492,106.809,0.002602187,0.0524294,20.9553,-0.16015,-0.113926,0,0
1014,253.25,41.0832,42.9954,170.561,105.498,107.069,0.002571068,0.0524362,20.9553,-0.17016,-0.135724,0,0
1017,254,41.3463,42.5522,165.559,105.501,107.02,0.002544326,0.0524592,20.9553,-0.16015,-0.131346,0,0
1020,254.75,41.8551,42.9357,164.997,105.519,107.403,0.002513966,0.0524888,20.9553,-0.150141,-0.162527,0,0
1023,255.5,41.84,42.3988,164.725,105.514,107.126,0.002497845,0.0525023,20.9553,-0.17016,-0.139243,0,0
1026,256.25,41.6211,42.2621,173.244,105.51,107.593,0.002496373,0.0524893,20.9553,-0.16015,-0.179568,0,0
1029,257,41.1714,42.417,169.757,105.497,106.561,0.002522865,0.0525053,20.9553,-0.180169,-0.0921535,0,0
1032,257.75,41.2805,42.5458,166.874,105.515,106.541,0.002553928,0.0525277,20.9553,-0.17016,-0.0888232,0,0
1035,258.5,41.2694,42.0993,164.054,105.512,106.969,0.002629929,0.0525622,20.9553,-0.150141,-0.125956,0,0
1038,259.25,40.8253,42.7759,163.422,105.516,107.123,0.002708081,0.0525747,20.9554,-0.150141,-0.138768,0,0
1041,260,41.3062,42.713,170.991,105.508,106.301,0.002811298,0.0525783,20.9556,-0.16015,-0.0688049,0,0
1044,260.75,41.7413,42.163,166.785,105.519,106.974,0.002893573,0.05258099,20.9557,-0.150141,-0.125762,0,0
1047,261.5,41.4781,42.1009,173.224,105.514,106.756,0.002965575,0.0524929,20.9557,-0.140131,-0.107495,0,0
1050,262.25,41.4099,41.9566,168.53,105.527,106.908,0.003019969,0.0524668,20.9558,-0.150141,-0.119444,0,0
1053,263,41.494,42.0193,168.146,105.517,107.22,0.00305441,0.052464,20.9558,-0.16015,-0.147023,0,0
1056,263.75,41.1074,41.9861,169.989,105.518,106.87,0.003069216,0.0524801,20.9558,-0.140131,-0.116991,0,0
1059,264.5,41.2728,41.9566,163.744,105.529,107.723,0.003050079,0.0524517,20.9558,-0.150141,-0.189007,0,0
1062,265.25,41.1486,41.6741,168.784,105.536,106.104,0.003022781,0.0523624,20.9559,-0.16015,-0.0492727,0,0
1065,266,41.1521,41.7172,167.683,105.53,106.482,0.002992173,0.0522973,20.9559,-0.130122,-0.0824904,0,0
1068,266.75,40.9818,41.8013,163.341,105.526,107.486,0.00296128,0.0522499,20.9559,-0.150141,-0.168964,0,0
1071,267.5,40.5023,42.2358,164.092,105.541,107.017,0.002927321,0.0522152,20.9559,-0.17016,-0.127524,0,0
1074,268.25,40.7208,42.218,166.649,105.543,106.641,0.002897688,0.0522081,20.9559,-0.17016,-0.0950569,0,0
1077,269,40.5144,42.2996,171.541,105.549,106.655,0.002867558,0.0522211,20.9558,-0.17016,-0.09571787,0,0
1080,269.75,40.733,42.1312,168.87,105.536,106.912,0.002841957,0.0522178,20.9556,-0.150141,-0.119054,0,0
1083,270.5,40.7134,41.9122,170.004,105.546,106.987,0.002812429,0.05221,20.9555,-0.17016,-0.124558,0,0
1086,271.25,40.4201,42.1932,165.391,105.556,107.274,0.002783279,0.0522166,20.9553,-0.16015,-0.148196,0,0
1089,272,40.382,42.1795,170.045,105.558,107.476,0.002750758,0.0522267,20.9553,-0.17016,-0.165368,0,0
1092,272.75,41.0855,41.8516,165.415,105.553,107.216,0.002713336,0.0522884,20.9552,-0.180169,-0.143617,0,0
1095,273.5,41.0039,41.5964,166.902,105.56,107.094,0.002677908,0.05232,20.9552,-0.17016,-0.132502,0,0
1098,274.25,40.3381,42.1828,171.615,105.56,106.673,0.002653982,0.0523202,20.9551,-0.180169,-0.0963313,0,0
1101,275,40.5487,42.3764,164.533,105.553,106.354,0.002637351,0.0522841,20.9551,-0.17016,-0.069442,0,0
1104,275.75,41.2258,41.7284,168.441,105.563,107.112,0.002638562,0.0522577,20.9551,-0.17016,-0.133838,0,0
1107,276.5,41.0054,41.6863,162.132,105.563,106.129,0.002646133,0.0522385,20.9551,-0.17016,-0.0491108,0,0
1110,277.25,40.5153,42.3248,167.902,105.566,106.643,0.002653367,0.0522427,20.9551,-0.16015,-0.0932838,0,0
1113,278,40.442,41.7492,164.621,105.559,107.188,0.002647211,0.052239,20.9551,-0.180169,-0.140627,0,0
1116,278.75,40.5029,42.6244,166.714,105.563,107.056,0.00263785,0.0522249,20.9551,-0.180169,-0.128991,0,0
1119,279.5,41.12,41.8434,168.746,105.573,107.192,0.00261201,0.0522273,20.9546,-0.180169,-0.139819,0,0
1122,280.25,40.3466,42.2766,165.215,105.572,106.466,0.002585159,0.0522278,20.9541,-0.180169,-0.0774802,0,0
1125,281,40.6592,41.9053,169.376,105.573,106.61,,0.0522167,,-0.180169,-0.0897922,0,0
1128,281.75,41.3306,42.2503,164.261,105.586,106.85,,0.0521959,,-0.16015,-0.109336,0,0
1131,282.5,40.5309,42.2886,165.319,105.583,107.088,,0.0521753,,-0.17016,-0.130038,0,0
1134,283.25,40.8403,42.0832,172.32,105.588,106.464,,0.0521603,,-0.180169,-0.0758308,0,0
1137,284,40.7357,41.3071,166.109,105.594,106.968,,,,-0.16015,-0.118695,0,0
1140,284.75,40.689,41.9959,166.044,105.578,107.443,,,,-0.17016,-0.1608,0,0
1143,285.5,41.0563,41.5468,165.641,105.59,106.925,,,,-0.200188,-0.115414,0,0
1146,286.25,40.8969,41.7423,167.656,105.587,106.173,,,,-0.190178,-0.05083362,0,0
1149,287,40.3179,42.1931,161.265,105.585,106.619,,,,-0.17016,-0.0895506,0,0
1152,287.75,40.5492,42.1928,168.497,105.584,106.617,,,,-0.16015,-0.08934167,0,0
1155,288.5,40.9529,41.6977,169.736,105.577,107.313,,,,-0.190178,-0.149735,0,0
1158,289.25,40.0871,41.8073,167.54,105.579,106.934,,,,-0.200188,-0.117104,0,0
1161,290,40.7206,41.6316,167.628,105.59,107.341,,,,-0.190178,-0.151052,0,0
1164,290.75,40.4379,42.1227,165.773,105.587,106.431,,,,-0.190178,-0.0730935,0,0
1167,291.5,40.6676,41.5802,172.088,105.586,106.515,,,,-0.200188,-0.0804773,0,0
1168,291.75,40.6114,41.7494,167.988,105.583,106.426,,,,-0.220206,-0.0730632,0,0