File: 01_Data/ABS/STA/N2/30K_min/ABS_STA_N2_30KData_211020_R3.csv
##Temp./Â°C,Time/min,Mass loss(subtr.2)/mg,DSC(subtr.2)/(mW/mg),Sensit./(uV/mW)
49.503,10.01,-0.0237,-0.003809703,1.05401
50.003,10.9687,-0.02407575,0.01742294,1.05402
50.503,11.18467,-0.02142914,0.03664921,1.05403
51.003,11.32923,-0.01988075,0.05237221,1.05404
51.503,11.44086,-0.02517973,0.06933046,1.05405
52.003,11.53599,-0.0239573,0.0815017,1.05405
52.503,11.6197,-0.02303766,0.09334321,1.05406
53.003,11.6936,-0.02776329,0.10791,1.05406
53.503,11.76254,-0.02350747,0.12062,1.05406
54.003,11.8254,-0.02259869,0.13217,1.05406
54.503,11.88464,-0.02244989,0.14301,1.05406
55.003,11.9406,-0.02041136,0.15276,1.05406
55.503,11.99346,-0.02238474,0.16306,1.05406
56.003,12.04365,-0.02169955,0.17221,1.05405
56.503,12.0924,-0.02389004,0.18267,1.05405
57.003,12.13875,-0.02520016,0.18926,1.05404
57.503,12.18357,-0.02477581,0.19766,1.05403
58.003,12.22725,-0.02289168,0.20545,1.05402
58.503,12.26951,-0.02390667,0.21117,1.05401
59.003,12.31091,-0.02316342,0.219,1.054
59.503,12.35143,-0.02393629,0.22864,1.05399
60.003,12.39107,-0.02792428,0.23453,1.05398
60.503,12.42965,-0.03226581,0.23879,1.05396
61.003,12.46727,-0.02012467,0.24488,1.05395
61.503,12.50426,-0.03204996,0.25253,1.05393
62.003,12.54073,-0.0193948,0.25709,1.05391
62.503,12.5764,-0.002181246,0.26545,1.05389
63.003,12.61174,-0.01665022,0.26937,1.05387
63.503,12.64668,-0.02110092,0.27535,1.05385
64.003,12.6812,-0.02621136,0.27997,1.05382
64.503,12.71535,-0.03411015,0.28666,1.0538
65.003,12.74893,-0.02670619,0.28997,1.05377
65.503,12.78195,-0.02609764,0.29663,1.05374
66.003,12.81467,-0.02454192,0.30243,1.05372
66.503,12.84695,-0.02428687,0.30553,1.05369
67.003,12.8789,-0.02499489,0.31044,1.05366
67.503,12.91057,-0.02476965,0.31615,1.05362
68.003,12.94196,-0.02293947,0.31995,1.05359
68.503,12.97315,-0.02437659,0.32457,1.05356
69.003,13.00408,-0.02383093,0.32817,1.05352
69.503,13.0349,-0.02175031,0.33243,1.05349
70.003,13.0653,-0.0235825,0.33543,1.05345
70.503,13.09551,-0.02544131,0.34055,1.05341
71.003,13.12544,-0.02313238,0.34631,1.05337
71.503,13.15525,-0.0220814,0.35147,1.05333
72.003,13.18479,-0.02181386,0.35512,1.05328
72.503,13.21411,-0.01995794,0.35867,1.05324
73.003,13.2431,-0.01940216,0.36186,1.0532
73.503,13.27201,-0.02082606,0.3713,1.05315
74.003,13.30069,-0.02277428,0.37254,1.0531
74.503,13.3292,-0.0231672,0.37779,1.05305
75.003,13.3576,-0.02184268,0.38047,1.053
75.503,13.3857,-0.0232251,0.38547,1.05295
76.003,13.4137,-0.02409094,0.38789,1.0529
76.503,13.44145,-0.02348609,0.39342,1.05285
77.003,13.46899,-0.0230277,0.39982,1.05279
77.503,13.4963,-0.0228886,0.40162,1.05274
78.003,13.5235,-0.02351813,0.40625,1.05268
78.503,13.55057,-0.02358232,0.40835,1.05262
79.003,13.5775,-0.02379925,0.41301,1.05257
79.503,13.60414,-0.0237844,0.41527,1.0525
80.003,13.63069,-0.02358173,0.41818,1.05244
80.503,13.657,-0.02370142,0.42305,1.05238
81.003,13.68319,-0.02547074,0.42589,1.05232
81.503,13.70919,-0.02585216,0.4274,1.05225
82.003,13.73515,-0.02612698,0.43074,1.05219
82.503,13.7608,-0.02589838,0.4338,1.05212
83.003,13.78643,-0.02655113,0.43795,1.05205
83.503,13.8118,-0.02654192,0.4398,1.05198
84.003,13.83699,-0.02544279,0.44291,1.05191
84.503,13.8621,-0.02412631,0.44534,1.05184
85.003,13.887,-0.02350087,0.44827,1.05177
85.503,13.91185,-0.02383271,0.45102,1.05169
86.003,13.93663,-0.02395696,0.45296,1.05162
86.503,13.96106,-0.02606902,0.4527,1.05154
87.003,13.98535,-0.02651353,0.45516,1.05146
87.503,14.00951,-0.02633951,0.45865,1.05139
88.003,14.03355,-0.02488435,0.45953,1.05131
88.503,14.0576,-0.02413062,0.46073,1.05122
89.003,14.0813,-0.02365623,0.46159,1.05114
89.503,14.10501,-0.02498949,0.46295,1.05106
90.003,14.1284,-0.02613371,0.46195,1.05098
90.503,14.1517,-0.02645983,0.46446,1.05089
91.003,14.17495,-0.02769002,0.46585,1.0508
91.503,14.1981,-0.02730014,0.46728,1.05072
92.003,14.2211,-0.0271166,0.46757,1.05063
92.503,14.24402,-0.0259374,0.47092,1.05054
93.003,14.26679,-0.02517612,0.47312,1.05045
93.503,14.2893,-0.02319819,0.47329,1.05035
94.003,14.31185,-0.0245062,0.47976,1.05026
94.503,14.33441,-0.02468479,0.48192,1.05017
95.003,14.35666,-0.02592577,0.48463,1.05007
95.503,14.3789,-0.02438823,0.4905,1.04997
96.003,14.40099,-0.02488807,0.49225,1.04988
96.503,14.4229,-0.02572298,0.4931,1.04978
97.003,14.4449,-0.02729761,0.49866,1.04968
97.503,14.46669,-0.02701055,0.50317,1.04958
98.003,14.4883,-0.02772173,0.50514,1.04947
98.503,14.5099,-0.02775195,0.51037,1.04937
99.003,14.5314,-0.02820453,0.5144,1.04927
99.503,14.5528,-0.027867,0.51837,1.04916
100.003,14.57424,-0.02722214,0.52314,1.04905
100.503,14.59551,-0.02599387,0.52598,1.04895
101.003,14.6166,-0.02739837,0.53305,1.04884
101.503,14.63781,-0.02846413,0.53746,1.04873
102.003,14.65872,-0.0281086,0.54114,1.04862
102.503,14.67956,-0.02656795,0.54655,1.0485
103.003,14.7004,-0.02491634,0.55237,1.04839
103.503,14.7211,-0.0252278,0.55821,1.04828
104.003,14.7418,-0.0264281,0.5629,1.04816
104.503,14.76235,-0.02637896,0.56741,1.04804
105.003,14.7829,-0.02577315,0.57195,1.04793
105.503,14.80331,-0.026164,0.57961,1.04781
106.003,14.82364,-0.02541588,0.58617,1.04769
106.503,14.84395,-0.02608942,0.59432,1.04757
107.003,14.86415,-0.02629995,0.60063,1.04744
107.503,14.8843,-0.02625447,0.6061,1.04732
108.003,14.90435,-0.02734676,0.61283,1.0472
108.503,14.9244,-0.02607878,0.6199,1.04707
109.003,14.94428,-0.0252966,0.62926,1.04695
109.503,14.9642,-0.02456717,0.63771,1.04682
110.003,14.9839,-0.02334606,0.64489,1.04669
110.503,15.0036,-0.02467042,0.65144,1.04656
111.003,15.0233,-0.02603202,0.66053,1.04643
111.503,15.04287,-0.02621974,0.67073,1.0463
112.003,15.06236,-0.02565612,0.67648,1.04616
112.503,15.0819,-0.02488695,0.68489,1.04603
113.003,15.1015,-0.02553286,0.69512,1.0459
113.503,15.1208,-0.02533069,0.70006,1.04576
114.003,15.14008,-0.02501935,0.70645,1.04562
114.503,15.1593,-0.02697735,0.71241,1.04548
115.003,15.17845,-0.02721205,0.71467,1.04535
115.503,15.1976,-0.02804159,0.72234,1.04521
116.003,15.21679,-0.02724272,0.72602,1.04506
116.503,15.23582,-0.02721083,0.73078,1.04492
117.003,15.2549,-0.02715591,0.73423,1.04478
117.503,15.2738,-0.02647349,0.73799,1.04463
118.003,15.2927,-0.02728266,0.74079,1.04449
118.503,15.31161,-0.02731582,0.74386,1.04434
119.003,15.33045,-0.02588768,0.74878,1.04419
119.503,15.3491,-0.02693151,0.75135,1.04405
120.003,15.3677,-0.02563079,0.75233,1.0439
120.503,15.3862,-0.02624377,0.75603,1.04374
121.003,15.4049,-0.02664448,0.75722,1.04359
121.503,15.42336,-0.02694773,0.76051,1.04344
122.003,15.4418,-0.02756978,0.76578,1.04329
122.503,15.4604,-0.02709325,0.76986,1.04313
123.003,15.4788,-0.02654777,0.77107,1.04298
123.503,15.497,-0.02670917,0.77616,1.04282
124.003,15.5153,-0.0269662,0.77855,1.04266
124.503,15.5336,-0.02702489,0.78185,1.0425
125.003,15.55166,-0.02619232,0.78521,1.04234
125.503,15.56976,-0.02567914,0.78981,1.04218
126.003,15.5878,-0.02578239,0.79326,1.04202
126.503,15.6059,-0.02494924,0.79601,1.04185
127.003,15.6239,-0.02583482,0.79981,1.04169
127.503,15.6418,-0.02547158,0.80461,1.04152
128.003,15.65962,-0.02578296,0.80818,1.04136
128.503,15.6775,-0.02593402,0.81058,1.04119
129.003,15.69524,-0.02726366,0.81403,1.04102
129.503,15.71297,-0.0282532,0.81717,1.04085
130.003,15.7307,-0.02763889,0.82085,1.04068
130.503,15.74854,-0.02881825,0.82358,1.04051
131.003,15.76614,-0.0286544,0.82854,1.04034
131.503,15.78369,-0.02903669,0.83062,1.04017
132.003,15.8013,-0.02906901,0.83346,1.03999
132.503,15.8188,-0.02906615,0.83616,1.03982
133.003,15.83622,-0.02897319,0.83493,1.03964
133.503,15.8537,-0.03030311,0.83693,1.03946
134.003,15.8712,-0.03041689,0.83756,1.03928
134.503,15.88851,-0.02909892,0.83889,1.0391
135.003,15.9059,-0.02899316,0.83955,1.03892
135.503,15.9232,-0.02769822,0.83915,1.03874
136.003,15.94043,-0.02909804,0.83882,1.03856
136.503,15.9577,-0.02829634,0.8401,1.03838
137.003,15.9749,-0.02774184,0.84039,1.03819
137.503,15.99199,-0.02774959,0.84308,1.03801
138.003,16.00906,-0.0277496,0.84265,1.03782
138.503,16.02613,-0.0277372,0.84532,1.03763
139.003,16.0431,-0.02761686,0.84649,1.03744
139.503,16.06015,-0.02644039,0.8482,1.03726
140.003,16.07711,-0.02761538,0.85028,1.03707
140.503,16.09403,-0.02740236,0.85086,1.03687
141.003,16.11091,-0.02632142,0.85121,1.03668
141.503,16.12769,-0.0263262,0.85429,1.03649
142.003,16.14455,-0.02713658,0.85678,1.03629
142.503,16.16135,-0.02763389,0.85956,1.0361
143.003,16.17812,-0.02765065,0.86147,1.0359
143.503,16.19483,-0.02853225,0.86156,1.03571
144.003,16.2116,-0.02905534,0.86261,1.03551
144.503,16.22824,-0.03029857,0.8656,1.03531
145.003,16.2449,-0.02921624,0.87012,1.03511
145.503,16.26152,-0.02886998,0.87238,1.03491
146.003,16.27811,-0.02749802,0.87631,1.03471
146.503,16.2946,-0.02744466,0.87731,1.0345
147.003,16.31116,-0.02611581,0.87846,1.0343
147.503,16.32757,-0.02580239,0.88099,1.03409
148.003,16.34401,-0.02553464,0.88555,1.03389
148.503,16.36045,-0.02556059,0.8857,1.03368
149.003,16.37686,-0.02550964,0.88922,1.03347
149.503,16.39323,-0.02648414,0.89184,1.03326
150.003,16.40963,-0.02688314,0.89393,1.03306
150.503,16.42594,-0.02687608,0.89766,1.03284
151.003,16.4422,-0.02742808,0.9012,1.03263
151.503,16.45852,-0.02822596,0.90329,1.03242
152.003,16.4748,-0.02814573,0.90468,1.03221
152.503,16.49105,-0.02683194,0.9066,1.03199
153.003,16.5073,-0.02687009,0.91012,1.03178
153.503,16.52342,-0.02659228,0.91207,1.03156
154.003,16.53952,-0.02586406,0.91672,1.03134
154.503,16.55565,-0.02696335,0.91833,1.03113
155.003,16.57176,-0.02688588,0.92356,1.03091
155.503,16.58785,-0.02687332,0.92309,1.03069
156.003,16.60396,-0.02680331,0.92679,1.03047
156.503,16.62015,-0.0278822,0.92838,1.03024
157.003,16.63616,-0.02820122,0.93207,1.03002
157.503,16.6522,-0.02817807,0.93697,1.0298
158.003,16.6682,-0.0287116,0.93454,1.02957
158.503,16.68421,-0.02957153,0.9398,1.02935
159.003,16.70017,-0.02952037,0.94244,1.02912
159.503,16.71615,-0.02951922,0.94694,1.02889
160.003,16.7321,-0.02951989,0.94713,1.02867
160.503,16.74803,-0.0295204,0.9489,1.02844
161.003,16.76386,-0.02952467,0.95374,1.02821
161.503,16.7797,-0.02940279,0.95453,1.02798
162.003,16.79551,-0.0294536,0.95967,1.02774
162.503,16.81126,-0.02863543,0.95975,1.02751
163.003,16.82699,-0.02804852,0.96478,1.02728
163.503,16.84272,-0.02807636,0.96598,1.02704
164.003,16.8584,-0.02808101,0.96848,1.02681
164.503,16.87409,-0.02809185,0.97033,1.02657
165.003,16.88971,-0.02807134,0.97229,1.02633
165.503,16.90539,-0.029139,0.97364,1.0261
166.003,16.921,-0.02932462,0.97614,1.02586
166.503,16.93669,-0.02811602,0.97946,1.02562
167.003,16.9523,-0.02804951,0.98332,1.02538
167.503,16.96793,-0.02886261,0.98599,1.02513
168.003,16.98358,-0.02952405,0.98576,1.02489
168.503,16.99915,-0.02977306,0.98951,1.02465
169.003,17.0147,-0.03092284,0.99359,1.0244
169.503,17.03025,-0.03083096,0.9957,1.02416
170.003,17.04581,-0.03082847,0.99664,1.02391
170.503,17.0613,-0.03082992,0.99976,1.02367
171.003,17.0768,-0.03083002,1.0034,1.02342
171.503,17.09229,-0.03083,1.00786,1.02317
172.003,17.1078,-0.03082999,1.00795,1.02292
172.503,17.12312,-0.03082992,1.01106,1.02267
173.003,17.1385,-0.03083034,1.0112,1.02242
173.503,17.15383,-0.03083541,1.01445,1.02217
174.003,17.16916,-0.03056553,1.01696,1.02191
174.503,17.1845,-0.02941485,1.01903,1.02166
175.003,17.19978,-0.02951093,1.02249,1.0214
175.503,17.21506,-0.02951158,1.02314,1.02115
176.003,17.23033,-0.02950989,1.02557,1.02089
176.503,17.24558,-0.02951932,1.03037,1.02063
177.003,17.2608,-0.02952888,1.03006,1.02038
177.503,17.27605,-0.02986837,1.03316,1.02012
178.003,17.29123,-0.02984249,1.03595,1.01986
178.503,17.30643,-0.02982311,1.03606,1.0196
179.003,17.32159,-0.03027802,1.03925,1.01933
179.503,17.33674,-0.03086566,1.04413,1.01907
180.003,17.3519,-0.03135627,1.04745,1.01881
180.503,17.36695,-0.03233264,1.04941,1.01854
181.003,17.38203,-0.0323594,1.05044,1.01828
181.503,17.39705,-0.03301825,1.05163,1.01801
182.003,17.41207,-0.03220669,1.05627,1.01775
182.503,17.42707,-0.03227031,1.05713,1.01748
183.003,17.44205,-0.03226102,1.05903,1.01721
183.503,17.45702,-0.0322598,1.06381,1.01694
184.003,17.47202,-0.03225998,1.06297,1.01667
184.503,17.487,-0.03226004,1.06865,1.0164
185.003,17.50196,-0.03226018,1.0722,1.01613
185.503,17.51686,-0.03225825,1.0732,1.01586
186.003,17.5318,-0.0322514,1.0771,1.01558
186.503,17.54664,-0.03235219,1.07845,1.01531
187.003,17.56148,-0.03114806,1.07848,1.01503
187.503,17.5763,-0.03081736,1.08204,1.01476
188.003,17.5912,-0.0308333,1.08402,1.01448
188.503,17.60603,-0.03186036,1.08629,1.0142
189.003,17.6208,-0.03223051,1.08772,1.01393
189.503,17.63562,-0.03256543,1.09046,1.01365
190.003,17.65043,-0.0335826,1.09404,1.01337
190.503,17.66518,-0.03350067,1.09334,1.01309
191.003,17.67985,-0.03183293,1.09572,1.01281
191.503,17.6946,-0.03063348,1.09992,1.01252
192.003,17.7093,-0.03071009,1.10123,1.01224
192.503,17.72399,-0.03061316,1.10478,1.01196
193.003,17.73866,-0.03008366,1.10715,1.01167
193.503,17.7533,-0.03006193,1.10845,1.01139
194.003,17.768,-0.03008047,1.11178,1.0111
194.503,17.7826,-0.03026636,1.11426,1.01081
195.003,17.79726,-0.03135563,1.11626,1.01053
195.503,17.81185,-0.03135996,1.11742,1.01024
196.003,17.82645,-0.03175127,1.11933,1.00995
196.503,17.84105,-0.03272634,1.12262,1.00966
197.003,17.85564,-0.03269244,1.12397,1.00937
197.503,17.87021,-0.03270193,1.12922,1.00908
198.003,17.8847,-0.03244779,1.12914,1.00878
198.503,17.89927,-0.03265968,1.13065,1.00849
199.003,17.91379,-0.03263448,1.13223,1.0082
199.503,17.9283,-0.03321009,1.13649,1.0079
200.003,17.94281,-0.0340599,1.1383,1.00761
200.503,17.95726,-0.03400202,1.13994,1.00731
201.003,17.9718,-0.03400799,1.14095,1.00701
201.503,17.98617,-0.0340242,1.14263,1.00672
202.003,18.00065,-0.03403178,1.14682,1.00642
202.503,18.01512,-0.03508124,1.14662,1.00612
203.003,18.02958,-0.03532793,1.14979,1.00582
203.503,18.04406,-0.03498861,1.15135,1.00552
204.003,18.0585,-0.03398307,1.15377,1.00521
204.503,18.07295,-0.03490724,1.15535,1.00491
205.003,18.0874,-0.03536953,1.15785,1.00461
205.503,18.10179,-0.03544926,1.15911,1.00431
206.003,18.11617,-0.03667099,1.1613,1.004
206.503,18.13055,-0.03674881,1.16277,1.0037
207.003,18.14488,-0.03673995,1.1649,1.00339
207.503,18.15921,-0.03676847,1.16772,1.00308
208.003,18.17357,-0.03572555,1.17142,1.00278
208.503,18.18788,-0.03517872,1.17138,1.00247
209.003,18.20221,-0.0352053,1.17448,1.00216
209.503,18.21651,-0.03521182,1.17575,1.00185
210.003,18.2308,-0.03521172,1.17908,1.00154
210.503,18.24513,-0.03516999,1.18026,1.00123
211.003,18.25939,-0.03553438,1.18317,1.00092
211.503,18.27371,-0.0358485,1.18433,1.0006
212.003,18.28796,-0.03684628,1.18663,1.00029
212.503,18.3022,-0.03684765,1.1879,0.99997
213.003,18.3165,-0.03695247,1.19096,0.99966
213.503,18.33073,-0.03580545,1.19164,0.99934
214.003,18.34495,-0.03582924,1.1929,0.99903
214.503,18.35918,-0.03739317,1.19661,0.99871
215.003,18.3734,-0.03923284,1.19796,0.99839
215.503,18.38755,-0.040519,1.20013,0.99808
216.003,18.40172,-0.03999356,1.20277,0.99776
216.503,18.41593,-0.03586699,1.20498,0.99744
217.003,18.43015,-0.03189045,1.20777,0.99712
217.503,18.44435,-0.02899389,1.20784,0.9968
218.003,18.45851,-0.02782218,1.21097,0.99647
218.503,18.4727,-0.02966454,1.2116,0.99615
219.003,18.48686,-0.03205241,1.21337,0.99583
219.503,18.50098,-0.03451335,1.21508,0.9955
220.003,18.51513,-0.03767396,1.21887,0.99518
220.503,18.52925,-0.0392178,1.21738,0.99485
221.003,18.54338,-0.04038017,1.21986,0.99453
221.503,18.5575,-0.04095709,1.22214,0.9942
222.003,18.57169,-0.04039631,1.22344,0.99387
222.503,18.5858,-0.03938462,1.22471,0.99355
223.003,18.59996,-0.03828453,1.22731,0.99322
223.503,18.61404,-0.03784824,1.22876,0.99289
224.003,18.62807,-0.03781302,1.23185,0.99256
224.503,18.64215,-0.03888812,1.23248,0.99223
225.003,18.6562,-0.03922498,1.23345,0.99189
225.503,18.67024,-0.03928893,1.23536,0.99156
226.003,18.68427,-0.03998417,1.23584,0.99123
226.503,18.69831,-0.03992526,1.23891,0.9909
227.003,18.71237,-0.03992907,1.23979,0.99056
227.503,18.7264,-0.03993029,1.24237,0.99023
228.003,18.7404,-0.03993009,1.24533,0.98989
228.503,18.7544,-0.03992625,1.24812,0.98956
229.003,18.76843,-0.04013884,1.24947,0.98922
229.503,18.78246,-0.04147211,1.25052,0.98888
230.003,18.79648,-0.04122842,1.25113,0.98854
230.503,18.81053,-0.04237411,1.25075,0.9882
231.003,18.82456,-0.04165192,1.25308,0.98787
231.503,18.83856,-0.04137439,1.25291,0.98753
232.003,18.8525,-0.0404324,1.25937,0.98718
232.503,18.86649,-0.03981614,1.25894,0.98684
233.003,18.88045,-0.03911799,1.25799,0.9865
233.503,18.89441,-0.03832863,1.26106,0.98616
234.003,18.90832,-0.03839508,1.26405,0.98582
234.503,18.92225,-0.03898097,1.2645,0.98547
235.003,18.9362,-0.04002066,1.26609,0.98513
235.503,18.95014,-0.04027439,1.2689,0.98478
236.003,18.96406,-0.0415768,1.26861,0.98444
236.503,18.978,-0.04144988,1.27182,0.98409
237.003,18.9919,-0.04147748,1.27283,0.98374
237.503,19.00584,-0.04342901,1.27542,0.9834
238.003,19.01975,-0.04421851,1.27655,0.98305
238.503,19.03363,-0.04422449,1.27879,0.9827
239.003,19.04751,-0.04420978,1.27955,0.98235
239.503,19.06135,-0.04421674,1.28322,0.982
240.003,19.07519,-0.0441133,1.28314,0.98165
240.503,19.08907,-0.04496042,1.28512,0.9813
241.003,19.10291,-0.04423767,1.28629,0.98094
241.503,19.11676,-0.04542397,1.28851,0.98059
242.003,19.13058,-0.04427365,1.28934,0.98024
242.503,19.1445,-0.04436248,1.29235,0.97988
243.003,19.1584,-0.04430684,1.29146,0.97953
243.503,19.1722,-0.04422845,1.29445,0.97918
244.003,19.186,-0.04319277,1.29596,0.97882
244.503,19.19986,-0.04299937,1.29542,0.97846
245.003,19.21367,-0.04228963,1.29744,0.97811
245.503,19.22746,-0.04163449,1.29937,0.97775
246.003,19.24129,-0.04168823,1.30003,0.97739
246.503,19.25508,-0.04141236,1.30241,0.97703
247.003,19.26887,-0.04040807,1.30366,0.97667
247.503,19.28267,-0.04035523,1.30233,0.97631
248.003,19.29646,-0.04076366,1.30644,0.97595
248.503,19.3102,-0.04212729,1.30572,0.97559
249.003,19.32404,-0.0424422,1.30751,0.97523
249.503,19.33783,-0.04351817,1.31012,0.97487
250.003,19.35161,-0.04354677,1.31044,0.97451
250.503,19.3654,-0.04355109,1.312,0.97414
251.003,19.37916,-0.04354995,1.31269,0.97378
251.503,19.39295,-0.04354998,1.3163,0.97342
252.003,19.40677,-0.04354999,1.31402,0.97305
252.503,19.42047,-0.04354999,1.31483,0.97269
253.003,19.43422,-0.0435504,1.31711,0.97232
253.503,19.44802,-0.04354854,1.31914,0.97195
254.003,19.46177,-0.0435395,1.32036,0.97159
254.503,19.47549,-0.0426365,1.32248,0.97122
255.003,19.48921,-0.04221693,1.32217,0.97085
255.503,19.50294,-0.04224115,1.32373,0.97048
256.003,19.5167,-0.04344256,1.32505,0.97011
256.503,19.5304,-0.04521295,1.32629,0.96974
257.003,19.54406,-0.04553344,1.32938,0.96937
257.503,19.5578,-0.0465078,1.33214,0.969
258.003,19.5715,-0.04651903,1.32986,0.96863
258.503,19.5852,-0.04652035,1.33258,0.96826
259.003,19.5989,-0.04651998,1.33341,0.96788
259.503,19.61259,-0.04651999,1.33554,0.96751
260.003,19.62627,-0.04652,1.33511,0.96714
260.503,19.63995,-0.04652,1.33525,0.96676
261.003,19.65363,-0.04651998,1.33746,0.96639
261.503,19.66734,-0.04652006,1.33714,0.96601
262.003,19.68103,-0.04652018,1.33913,0.96564
262.503,19.69474,-0.04651669,1.34006,0.96526
263.003,19.70838,-0.04652967,1.33881,0.96488
263.503,19.72208,-0.04660334,1.34084,0.96451
264.003,19.7358,-0.04761879,1.34375,0.96413
264.503,19.74945,-0.04783502,1.34111,0.96375
265.003,19.76311,-0.04783377,1.34556,0.96337
265.503,19.7768,-0.04782873,1.34485,0.96299
266.003,19.7904,-0.04782942,1.34432,0.96261
266.503,19.80406,-0.04870621,1.34679,0.96223
267.003,19.8177,-0.04952748,1.34793,0.96185
267.503,19.83134,-0.04946558,1.34934,0.96147
268.003,19.84499,-0.04935698,1.34799,0.96109
268.503,19.8586,-0.04937243,1.35118,0.9607
269.003,19.87226,-0.04879089,1.35008,0.96032
269.503,19.8859,-0.04792549,1.35356,0.95994
270.003,19.89954,-0.04730052,1.35248,0.95955
270.503,19.9131,-0.04624072,1.3533,0.95917
271.003,19.92673,-0.04443463,1.35128,0.95878
271.503,19.94032,-0.04410289,1.35177,0.9584
272.003,19.954,-0.04595965,1.35545,0.95801
272.503,19.96756,-0.05079015,1.35763,0.95763
273.003,19.98114,-0.0544104,1.35827,0.95724
273.503,19.99479,-0.05695241,1.36032,0.95685
274.003,20.00843,-0.05781432,1.36025,0.95646
274.503,20.02202,-0.05643722,1.36266,0.95608
275.003,20.0355,-0.05575331,1.36388,0.95569
275.503,20.049,-0.05457218,1.36269,0.9553
276.003,20.06265,-0.05389344,1.36089,0.95491
276.503,20.07621,-0.05290696,1.36447,0.95452
277.003,20.08974,-0.05296906,1.36358,0.95413
277.503,20.1033,-0.0543146,1.36709,0.95373
278.003,20.11695,-0.05564503,1.3656,0.95334
278.503,20.13066,-0.05583148,1.36703,0.95295
279.003,20.14425,-0.05588987,1.36561,0.95256
279.503,20.15786,-0.05535333,1.36651,0.95217
280.003,20.1715,-0.0544705,1.3673,0.95177
280.503,20.18511,-0.05481816,1.36672,0.95138
281.003,20.19869,-0.0563666,1.3688,0.95098
281.503,20.2123,-0.05750639,1.36833,0.95059
282.003,20.22591,-0.05827288,1.3688,0.95019
282.503,20.2395,-0.0588675,1.37016,0.9498
283.003,20.25313,-0.05961025,1.37095,0.9494
283.503,20.26674,-0.05961255,1.37085,0.949
284.003,20.28034,-0.05888181,1.37171,0.94861
284.503,20.29393,-0.05819497,1.37126,0.94821
285.003,20.3075,-0.05826956,1.37003,0.94781
285.503,20.32108,-0.05828946,1.37178,0.94741
286.003,20.33464,-0.05928213,1.37254,0.94701
286.503,20.34819,-0.05958279,1.37285,0.94661
287.003,20.36178,-0.05953957,1.37185,0.94621
287.503,20.37536,-0.06007347,1.37348,0.94581
288.003,20.38896,-0.06087544,1.37368,0.94541
288.503,20.40254,-0.06087854,1.37189,0.94501
289.003,20.4161,-0.06088039,1.37334,0.94461
289.503,20.42971,-0.06087996,1.36979,0.94421
290.003,20.44329,-0.06087795,1.37254,0.94381
290.503,20.45686,-0.06089132,1.36904,0.9434
291.003,20.47044,-0.06089194,1.37209,0.943
291.503,20.48401,-0.06194451,1.36945,0.9426
292.003,20.49758,-0.06198296,1.37233,0.94219
292.503,20.51117,-0.06319183,1.37076,0.94179
293.003,20.52475,-0.06353235,1.36988,0.94138
293.503,20.53831,-0.06351621,1.37069,0.94098
294.003,20.5518,-0.06350183,1.36873,0.94057
294.503,20.5654,-0.06381,1.36958,0.94017
295.003,20.5789,-0.06479132,1.36958,0.93976
295.503,20.59244,-0.0648238,1.36654,0.93935
296.003,20.606,-0.0647873,1.36932,0.93895
296.503,20.61957,-0.06544785,1.3672,0.93854
297.003,20.63316,-0.06643831,1.36444,0.93813
297.503,20.64679,-0.06638491,1.36244,0.93772
298.003,20.6603,-0.06639213,1.36109,0.93731
298.503,20.6739,-0.06746786,1.36185,0.93691
299.003,20.68743,-0.06734272,1.36104,0.9365
299.503,20.70099,-0.06735205,1.3588,0.93609
300.003,20.71452,-0.067518,1.35776,0.93568
300.503,20.7281,-0.06766642,1.35657,0.93527
301.003,20.74164,-0.06849613,1.35603,0.93485
301.503,20.7552,-0.06912407,1.35733,0.93444
302.003,20.76879,-0.06965118,1.35475,0.93403
302.503,20.78237,-0.07071302,1.35365,0.93362
303.003,20.7959,-0.0707219,1.35317,0.93321
303.503,20.80949,-0.07192868,1.35032,0.93279
304.003,20.82304,-0.07193514,1.34989,0.93238
304.503,20.83662,-0.07196439,1.3488,0.93197
305.003,20.8502,-0.07195993,1.34791,0.93155
305.503,20.86374,-0.07198832,1.34477,0.93114
306.003,20.87724,-0.0731355,1.34395,0.93072
306.503,20.89079,-0.07336866,1.34015,0.93031
307.003,20.9043,-0.07338161,1.33989,0.92989
307.503,20.91788,-0.07356254,1.33596,0.92948
308.003,20.9314,-0.07476087,1.33492,0.92906
308.503,20.94491,-0.07467582,1.33598,0.92864
309.003,20.95849,-0.07470162,1.3321,0.92823
309.503,20.97208,-0.07469758,1.33227,0.92781
310.003,20.98558,-0.07472559,1.32727,0.92739
310.503,20.99912,-0.07465705,1.32555,0.92698
311.003,21.01266,-0.07586477,1.3249,0.92656
311.503,21.0262,-0.07602742,1.32343,0.92614
312.003,21.03977,-0.07601894,1.32081,0.92572
312.503,21.05329,-0.07667584,1.31744,0.9253
313.003,21.06684,-0.0774183,1.31745,0.92488
313.503,21.08042,-0.07735999,1.31413,0.92446
314.003,21.094,-0.07870757,1.31162,0.92404
314.503,21.10752,-0.0789014,1.30554,0.92362
315.003,21.121,-0.07893984,1.30565,0.9232
315.503,21.13457,-0.08010864,1.30247,0.92278
316.003,21.1481,-0.08017685,1.30156,0.92236
316.503,21.16167,-0.08066727,1.29935,0.92194
317.003,21.17522,-0.08158965,1.29364,0.92151
317.503,21.18877,-0.08149009,1.28978,0.92109
318.003,21.20232,-0.08145415,1.28664,0.92067
318.503,21.2159,-0.08205856,1.28264,0.92025
319.003,21.22941,-0.08282114,1.28338,0.91982
319.503,21.24294,-0.08293625,1.27573,0.9194
320.003,21.25649,-0.08411621,1.2728,0.91897
320.503,21.27,-0.08434972,1.27108,0.91855
321.003,21.28357,-0.08435014,1.26838,0.91813
321.503,21.29716,-0.08449582,1.26255,0.9177
322.003,21.31071,-0.08570653,1.26055,0.91728
322.503,21.32424,-0.08564967,1.25589,0.91685
323.003,21.33781,-0.08718831,1.25396,0.91642
323.503,21.35135,-0.08744725,1.24925,0.916
324.003,21.3649,-0.0884755,1.24176,0.91557
324.503,21.3784,-0.08876414,1.24052,0.91515
325.003,21.39196,-0.08881456,1.23308,0.91472
325.503,21.40554,-0.08774149,1.23058,0.91429
326.003,21.41914,-0.08632308,1.22696,0.91386
326.503,21.43274,-0.08631948,1.22201,0.91344
327.003,21.44633,-0.08633178,1.21729,0.91301
327.503,21.45988,-0.08631687,1.21281,0.91258
328.003,21.47348,-0.08734422,1.20789,0.91215
328.503,21.48708,-0.08785813,1.20395,0.91172
329.003,21.50061,-0.08857721,1.19949,0.91129
329.503,21.5142,-0.08935567,1.19634,0.91086
330.003,21.52775,-0.08942262,1.18828,0.91043
330.503,21.5413,-0.09082624,1.18582,0.91
331.003,21.55489,-0.09007538,1.18003,0.90957
331.503,21.56847,-0.09017338,1.17631,0.90914
332.003,21.58202,-0.09069605,1.16779,0.90871
332.503,21.59563,-0.09157264,1.16625,0.90828
333.003,21.60922,-0.09148655,1.16263,0.90785
333.503,21.62285,-0.09149812,1.15802,0.90742
334.003,21.63646,-0.09264988,1.15355,0.90699
334.503,21.65005,-0.09301918,1.14952,0.90656
335.003,21.66362,-0.09380184,1.14721,0.90612
335.503,21.6772,-0.09463971,1.1413,0.90569
336.003,21.69076,-0.09458947,1.13468,0.90526
336.503,21.7043,-0.09556464,1.12882,0.90482
337.003,21.71786,-0.09590261,1.12605,0.90439
337.503,21.7315,-0.09588616,1.12329,0.90396
338.003,21.74502,-0.09678567,1.1179,0.90352
338.503,21.75862,-0.09732588,1.11362,0.90309
339.003,21.77222,-0.09728458,1.10755,0.90266
339.503,21.78584,-0.09761736,1.10404,0.90222
340.003,21.7994,-0.09860645,1.09891,0.90179
340.503,21.813,-0.09878824,1.09266,0.90135
341.003,21.82667,-0.10061,1.08628,0.90092
341.503,21.84029,-0.10146,1.08072,0.90048
342.003,21.85387,-0.10146,1.07711,0.90005
342.503,21.86744,-0.10146,1.07217,0.89961
343.003,21.88106,-0.10147,1.06692,0.89917
343.503,21.8947,-0.10137,1.06048,0.89874
344.003,21.90824,-0.10228,1.0571,0.8983
344.503,21.9219,-0.10279,1.05036,0.89787
345.003,21.93553,-0.10272,1.04409,0.89743
345.503,21.94918,-0.10338,1.03806,0.89699
346.003,21.96281,-0.10332,1.03309,0.89655
346.503,21.97645,-0.10352,1.0258,0.89612
347.003,21.9901,-0.10443,1.02083,0.89568
347.503,22.00369,-0.10477,1.01213,0.89524
348.003,22.01734,-0.10691,1.00802,0.8948
348.503,22.03096,-0.10716,1.00151,0.89437
349.003,22.04464,-0.10718,0.99225,0.89393
349.503,22.0583,-0.10717,0.98764,0.89349
350.003,22.072,-0.10717,0.98164,0.89305
350.503,22.08568,-0.10717,0.97159,0.89261
351.003,22.09935,-0.10744,0.96552,0.89217
351.503,22.113,-0.1088,0.95787,0.89173
352.003,22.12667,-0.10904,0.9502,0.89129
352.503,22.14033,-0.11036,0.9454,0.89085
353.003,22.15396,-0.11067,0.93739,0.89041
353.503,22.16763,-0.11174,0.92787,0.88997
354.003,22.18131,-0.11177,0.92307,0.88953
354.503,22.195,-0.11202,0.91481,0.88909
355.003,22.20865,-0.11326,0.90697,0.88865
355.503,22.22231,-0.11349,0.89759,0.88821
356.003,22.236,-0.11477,0.89179,0.88777
356.503,22.2497,-0.11486,0.8825,0.88733
357.003,22.2634,-0.11529,0.87158,0.88689
357.503,22.27705,-0.11732,0.86545,0.88644
358.003,22.29075,-0.11747,0.85721,0.886
358.503,22.3045,-0.11771,0.84822,0.88556
359.003,22.3182,-0.11872,0.8398,0.88512
359.503,22.33183,-0.11878,0.83328,0.88468
360.003,22.34552,-0.11988,0.82195,0.88423
360.503,22.35922,-0.12147,0.8141,0.88379
361.003,22.3729,-0.12297,0.80606,0.88335
361.503,22.38656,-0.1237,0.79611,0.88291
362.003,22.40024,-0.12363,0.78833,0.88246
362.503,22.41395,-0.12406,0.77897,0.88202
363.003,22.42762,-0.12359,0.76983,0.88158
363.503,22.44136,-0.1252,0.7617,0.88113
364.003,22.4551,-0.12574,0.75273,0.88069
364.503,22.46882,-0.12677,0.74318,0.88025
365.003,22.4826,-0.12557,0.73299,0.8798
365.503,22.49626,-0.12634,0.7248,0.87936
366.003,22.50998,-0.12713,0.71729,0.87891
366.503,22.5237,-0.12839,0.7069,0.87847
367.003,22.53742,-0.12934,0.69782,0.87803
367.503,22.55108,-0.13007,0.68776,0.87758
368.003,22.56471,-0.12935,0.68009,0.87714
368.503,22.57837,-0.12941,0.67032,0.87669
369.003,22.59208,-0.1298,0.66291,0.87625
369.503,22.60581,-0.12956,0.64988,0.8758
370.003,22.61955,-0.12944,0.63963,0.87536
370.503,22.6333,-0.13015,0.63345,0.87491
371.003,22.6471,-0.13088,0.6234,0.87447
371.503,22.66096,-0.13173,0.61833,0.87402
372.003,22.67484,-0.13305,0.60789,0.87357
372.503,22.68865,-0.13486,0.59997,0.87313
373.003,22.70243,-0.13636,0.59291,0.87268
373.503,22.71614,-0.13757,0.58152,0.87224
374.003,22.72997,-0.14051,0.5762,0.87179
374.503,22.74375,-0.14132,0.56756,0.87134
375.003,22.75755,-0.14303,0.56134,0.8709
375.503,22.77131,-0.14581,0.5555,0.87045
376.003,22.78509,-0.14663,0.54426,0.87001
376.503,22.79899,-0.14717,0.53851,0.86956
377.003,22.81276,-0.14812,0.53256,0.86911
377.503,22.82648,-0.14852,0.52341,0.86867
378.003,22.84027,-0.14962,0.51721,0.86822
378.503,22.85407,-0.14997,0.51194,0.86777
379.003,22.8678,-0.15092,0.50426,0.86732
379.503,22.8816,-0.15093,0.49931,0.86688
380.003,22.8954,-0.15099,0.49166,0.86643
380.503,22.90928,-0.15249,0.48695,0.86598
381.003,22.92313,-0.15462,0.48138,0.86554
381.503,22.93692,-0.15679,0.47602,0.86509
382.003,22.95075,-0.15869,0.47341,0.86464
382.503,22.96459,-0.16146,0.46668,0.86419
383.003,22.97837,-0.16346,0.46417,0.86374
383.503,22.99217,-0.16443,0.46093,0.8633
384.003,23.006,-0.16662,0.45835,0.86285
384.503,23.01985,-0.16802,0.45436,0.8624
385.003,23.03369,-0.16996,0.45165,0.86195
385.503,23.04755,-0.17203,0.45001,0.8615
386.003,23.06144,-0.17239,0.44633,0.86106
386.503,23.07532,-0.17292,0.44772,0.86061
387.003,23.0892,-0.17421,0.44626,0.86016
387.503,23.10306,-0.17517,0.44727,0.85971
388.003,23.1169,-0.17647,0.44767,0.85926
388.503,23.13073,-0.17745,0.45035,0.85881
389.003,23.14459,-0.17919,0.4518,0.85837
389.503,23.15839,-0.18168,0.45592,0.85792
390.003,23.17214,-0.18503,0.45714,0.85747
390.503,23.18603,-0.18684,0.46316,0.85702
391.003,23.1999,-0.18942,0.46672,0.85657
391.503,23.21379,-0.19137,0.47223,0.85612
392.003,23.2277,-0.19263,0.47889,0.85567
392.503,23.2417,-0.19494,0.48656,0.85522
393.003,23.2557,-0.19642,0.49438,0.85477
393.503,23.2696,-0.19859,0.49994,0.85433
394.003,23.28354,-0.2017,0.51225,0.85388
394.503,23.29751,-0.2044,0.51998,0.85343
395.003,23.3114,-0.208,0.53282,0.85298
395.503,23.32529,-0.20971,0.54633,0.85253
396.003,23.33923,-0.21246,0.55482,0.85208
396.503,23.35318,-0.21471,0.57092,0.85163
397.003,23.36715,-0.21684,0.58308,0.85118
397.503,23.38104,-0.21936,0.60126,0.85073
398.003,23.39499,-0.22274,0.6164,0.85028
398.503,23.40894,-0.22642,0.63654,0.84983
399.003,23.42289,-0.22917,0.65169,0.84938
399.503,23.43681,-0.23262,0.67304,0.84893
400.003,23.45075,-0.23692,0.69402,0.84848
400.503,23.4647,-0.24052,0.71683,0.84803
401.003,23.47865,-0.24478,0.73943,0.84759
401.503,23.49259,-0.24953,0.76448,0.84714
402.003,23.50658,-0.25214,0.79159,0.84669
402.503,23.5206,-0.25597,0.81414,0.84624
403.003,23.53463,-0.25997,0.84514,0.84579
403.503,23.54863,-0.26388,0.87542,0.84534
404.003,23.56268,-0.26723,0.90426,0.84489
404.503,23.57674,-0.27067,0.93762,0.84444
405.003,23.59078,-0.2741,0.96872,0.84399
405.503,23.60482,-0.27845,1.002,0.84354
406.003,23.61883,-0.28182,1.037,0.84309
406.503,23.63285,-0.28398,1.07497,0.84264
407.003,23.64692,-0.28743,1.11099,0.84219
407.503,23.661,-0.2914,1.14963,0.84174
408.003,23.67502,-0.29555,1.18784,0.84129
408.503,23.68903,-0.30175,1.22797,0.84084
409.003,23.7031,-0.30601,1.27233,0.84039
409.503,23.71718,-0.30957,1.31561,0.83994
410.003,23.73122,-0.31392,1.35937,0.83949
410.503,23.74525,-0.31738,1.40446,0.83904
411.003,23.75935,-0.32272,1.45352,0.83859
411.503,23.7734,-0.32994,1.5074,0.83814
412.003,23.78753,-0.33705,1.55561,0.83769
412.503,23.80161,-0.34443,1.60628,0.83724
413.003,23.8157,-0.35176,1.66163,0.83679
413.503,23.82985,-0.35796,1.71848,0.83634
414.003,23.84394,-0.36458,1.77296,0.83589
414.503,23.85802,-0.37077,1.83103,0.83545
415.003,23.87215,-0.37691,1.88893,0.835
415.503,23.88634,-0.38475,1.95008,0.83455
416.003,23.9005,-0.39101,2.00939,0.8341
416.503,23.91461,-0.39791,2.07236,0.83365
417.003,23.92878,-0.40668,2.14052,0.8332
417.503,23.94294,-0.41344,2.20369,0.83275
418.003,23.95709,-0.4216,2.26932,0.8323
418.503,23.97121,-0.43209,2.33891,0.83185
419.003,23.98536,-0.43944,2.40577,0.8314
419.503,23.99954,-0.44723,2.47957,0.83095
420.003,24.0137,-0.45624,2.55101,0.8305
420.503,24.02792,-0.46324,2.62277,0.83005
421.003,24.04216,-0.47234,2.69735,0.8296
421.503,24.0564,-0.48168,2.77693,0.82915
422.003,24.0706,-0.49064,2.85384,0.82871
422.503,24.08485,-0.50109,2.93267,0.82826
423.003,24.09913,-0.51041,3.01515,0.82781
423.503,24.1134,-0.51993,3.09501,0.82736
424.003,24.12764,-0.53055,3.17825,0.82691
424.503,24.1419,-0.53951,3.26188,0.82646
425.003,24.1562,-0.54806,3.34994,0.82601
425.503,24.17045,-0.55973,3.43196,0.82556
426.003,24.18476,-0.56931,3.52292,0.82512
426.503,24.19904,-0.58292,3.61316,0.82467
427.003,24.21335,-0.59756,3.70604,0.82422
427.503,24.22767,-0.61026,3.80027,0.82377
428.003,24.242,-0.62449,3.89511,0.82332
428.503,24.2563,-0.63984,3.99131,0.82287
429.003,24.27061,-0.65244,4.08798,0.82242
429.503,24.28492,-0.66808,4.18619,0.82198
430.003,24.29927,-0.68175,4.2833,0.82153
430.503,24.3136,-0.69558,4.38479,0.82108
431.003,24.32798,-0.71296,4.48855,0.82063
431.503,24.34231,-0.72582,4.59077,0.82018
432.003,24.35666,-0.74035,4.69709,0.81974
432.503,24.3711,-0.75974,4.80389,0.81929
433.003,24.38544,-0.77409,4.9067,0.81884
433.503,24.39986,-0.79034,5.01478,0.81839
434.003,24.41424,-0.8089,5.12334,0.81795
434.503,24.42868,-0.82415,5.23683,0.8175
435.003,24.44314,-0.84359,5.34284,0.81705
435.503,24.45753,-0.86304,5.4549,0.8166
436.003,24.47198,-0.88018,5.56789,0.81616
436.503,24.4864,-0.90393,5.68068,0.81571
437.003,24.5009,-0.92264,5.79186,0.81526
437.503,24.5153,-0.9426,5.90353,0.81482
438.003,24.52979,-0.9667,6.0156,0.81437
438.503,24.54429,-0.98378,6.13027,0.81392
439.003,24.55878,-1.00597,6.24109,0.81347
439.503,24.57326,-1.03109,6.35369,0.81303
440.003,24.58776,-1.05045,6.46786,0.81258
440.503,24.60225,-1.0748,6.57561,0.81214
441.003,24.61676,-1.0995,6.68845,0.81169
441.503,24.63124,-1.1219,6.79793,0.81124
442.003,24.64572,-1.15029,6.90756,0.8108
442.503,24.66025,-1.17411,7.01198,0.81035
443.003,24.6748,-1.19803,7.11519,0.8099
443.503,24.68929,-1.22876,7.21857,0.80946
444.003,24.70382,-1.25203,7.31948,0.80901
444.503,24.7183,-1.27891,7.41536,0.80857
445.003,24.7329,-1.3094,7.51066,0.80812
445.503,24.7474,-1.33363,7.60512,0.80768
446.003,24.762,-1.36486,7.69561,0.80723
446.503,24.7765,-1.39635,7.7838,0.80679
447.003,24.79109,-1.42369,7.86425,0.80634
447.503,24.8057,-1.45671,7.9412,0.8059
448.003,24.82029,-1.48334,8.01595,0.80545
448.503,24.83486,-1.51181,8.08535,0.80501
449.003,24.8494,-1.54899,8.15048,0.80456
449.503,24.86405,-1.57766,8.2113,0.80412
450.003,24.87862,-1.61109,8.26682,0.80367
450.503,24.89322,-1.64806,8.31665,0.80323
451.003,24.90783,-1.67533,8.36363,0.80279
451.503,24.92241,-1.7083,8.4011,0.80234
452.003,24.93702,-1.74199,8.43279,0.8019
452.503,24.95158,-1.77269,8.46422,0.80145
453.003,24.96617,-1.81158,8.48311,0.80101
453.503,24.9807,-1.84305,8.49858,0.80057
454.003,24.99523,-1.87616,8.50861,0.80012
454.503,25.00982,-1.91676,8.51241,0.79968
455.003,25.0244,-1.94656,8.50608,0.79924
455.503,25.039,-1.98143,8.49687,0.7988
456.003,25.05355,-2.01897,8.478,0.79835
456.503,25.06813,-2.04771,8.45702,0.79791
457.003,25.08275,-2.08407,8.42702,0.79747
457.503,25.09735,-2.1196,8.38987,0.79702
458.003,25.11195,-2.15531,8.34919,0.79658
458.503,25.12651,-2.19572,8.30288,0.79614
459.003,25.14114,-2.23126,8.24752,0.7957
459.503,25.1557,-2.2641,8.18791,0.79526
460.003,25.17032,-2.29712,8.12342,0.79482
460.503,25.18487,-2.33041,8.04879,0.79437
461.003,25.19941,-2.36382,7.98025,0.79393
461.503,25.21397,-2.39683,7.90858,0.79349
462.003,25.22849,-2.4291,7.82583,0.79305
462.503,25.24305,-2.46089,7.73913,0.79261
463.003,25.25756,-2.49239,7.64562,0.79217
463.503,25.27209,-2.52425,7.55249,0.79173
464.003,25.28663,-2.55691,7.45902,0.79129
464.503,25.3012,-2.58928,7.35644,0.79085
465.003,25.3157,-2.62143,7.25651,0.79041
465.503,25.3303,-2.65351,7.14264,0.78997
466.003,25.3448,-2.68428,7.02695,0.78953
466.503,25.3594,-2.71433,6.89914,0.78909
467.003,25.37385,-2.7466,6.77394,0.78865
467.503,25.3884,-2.77245,6.64241,0.78821
468.003,25.4028,-2.8043,6.5011,0.78777
468.503,25.41731,-2.83452,6.34589,0.78733
469.003,25.43184,-2.86086,6.18063,0.78689
469.503,25.4463,-2.89208,6.00486,0.78646
470.003,25.4608,-2.91694,5.83485,0.78602
470.503,25.47529,-2.94184,5.67433,0.78558
471.003,25.48976,-2.97107,5.51904,0.78514
471.503,25.50422,-2.9932,5.36702,0.7847
472.003,25.5187,-3.01842,5.22182,0.78427
472.503,25.5332,-3.04648,5.08286,0.78383
473.003,25.5476,-3.06758,4.93638,0.78339
473.503,25.56212,-3.0912,4.79246,0.78295
474.003,25.5766,-3.11288,4.65342,0.78252
474.503,25.59115,-3.13206,4.51494,0.78208
475.003,25.6056,-3.15519,4.38001,0.78164
475.503,25.62013,-3.17503,4.24798,0.78121
476.003,25.63469,-3.19516,4.11902,0.78077
476.503,25.6492,-3.21896,3.98986,0.78033
477.003,25.6637,-3.23642,3.8633,0.7799
477.503,25.67821,-3.25508,3.75367,0.77946
478.003,25.69274,-3.2746,3.64561,0.77903
478.503,25.7073,-3.2896,3.53034,0.77859
479.003,25.72178,-3.30892,3.41597,0.77816
479.503,25.73629,-3.3286,3.30571,0.77772
480.003,25.75081,-3.34497,3.19588,0.77729
480.503,25.76534,-3.36362,3.08628,0.77685
481.003,25.7799,-3.3805,2.97992,0.77642
481.503,25.79438,-3.39672,2.87603,0.77599
482.003,25.8089,-3.41506,2.77191,0.77555
482.503,25.82349,-3.42819,2.67406,0.77512
483.003,25.8381,-3.44186,2.57332,0.77468
483.503,25.85266,-3.45628,2.4826,0.77425
484.003,25.86725,-3.467,2.3916,0.77382
484.503,25.88186,-3.47993,2.29942,0.77339
485.003,25.89644,-3.49335,2.21167,0.77295
485.503,25.911,-3.50584,2.1285,0.77252
486.003,25.92555,-3.52119,2.04814,0.77209
486.503,25.94011,-3.53285,1.96615,0.77166
487.003,25.9547,-3.54391,1.89234,0.77122
487.503,25.9693,-3.55661,1.81726,0.77079
488.003,25.98391,-3.56531,1.74604,0.77036
488.503,25.99853,-3.57527,1.67833,0.76993
489.003,26.0132,-3.58685,1.61175,0.7695
489.503,26.02789,-3.5953,1.5481,0.76907
490.003,26.04256,-3.6053,1.49022,0.76864
490.503,26.05729,-3.61421,1.42919,0.76821
491.003,26.07198,-3.62172,1.37416,0.76778
491.503,26.08674,-3.63083,1.31875,0.76735
492.003,26.10141,-3.63794,1.26795,0.76692
492.503,26.11613,-3.6456,1.21861,0.76649
493.003,26.13083,-3.65486,1.17488,0.76606
493.503,26.14552,-3.66136,1.12949,0.76563
494.003,26.16025,-3.66951,1.09231,0.7652
494.503,26.17495,-3.67893,1.04795,0.76477
495.003,26.1897,-3.68607,1.00842,0.76435
495.503,26.20441,-3.69426,0.97507,0.76392
496.003,26.2191,-3.69993,0.93881,0.76349
496.503,26.2339,-3.70389,0.90231,0.76306
497.003,26.24868,-3.70839,0.87288,0.76264
497.503,26.26343,-3.71302,0.83904,0.76221
498.003,26.27818,-3.71843,0.81232,0.76178
498.503,26.293,-3.72513,0.7844,0.76135
499.003,26.30776,-3.73004,0.75709,0.76093
499.503,26.32253,-3.73555,0.73336,0.7605
500.003,26.3373,-3.74088,0.70948,0.76008
500.503,26.35213,-3.7452,0.68079,0.75965
501.003,26.36695,-3.75022,0.65811,0.75923
501.503,26.3818,-3.75474,0.63672,0.7588
502.003,26.3966,-3.76034,0.61378,0.75838
502.503,26.4115,-3.76507,0.59031,0.75795
503.003,26.42629,-3.76928,0.57225,0.75753
503.503,26.44112,-3.77333,0.552,0.7571
504.003,26.456,-3.77759,0.53407,0.75668
504.503,26.4708,-3.78145,0.51311,0.75625
505.003,26.48566,-3.78578,0.49525,0.75583
505.503,26.50051,-3.78946,0.479,0.75541
506.003,26.51544,-3.79265,0.45719,0.75499
506.503,26.53033,-3.79457,0.44421,0.75456
507.003,26.54525,-3.79814,0.42334,0.75414
507.503,26.56017,-3.8011,0.40673,0.75372
508.003,26.57511,-3.80224,0.38851,0.7533
508.503,26.59,-3.80414,0.37335,0.75287
509.003,26.6049,-3.80516,0.35885,0.75245
509.503,26.6198,-3.80706,0.34599,0.75203
510.003,26.63471,-3.80984,0.32931,0.75161
510.503,26.6496,-3.81392,0.31842,0.75119
511.003,26.66453,-3.81583,0.29844,0.75077
511.503,26.6795,-3.81747,0.28957,0.75035
512.003,26.6944,-3.81873,0.27709,0.74993
512.503,26.70937,-3.82031,0.26578,0.74951
513.003,26.7243,-3.82052,0.25254,0.74909
513.503,26.73925,-3.82188,0.24364,0.74867
514.003,26.7542,-3.82193,0.23236,0.74825
514.503,26.7692,-3.82158,0.21976,0.74784
515.003,26.78414,-3.82198,0.20806,0.74742
515.503,26.79908,-3.82276,0.2001,0.747
516.003,26.81405,-3.82247,0.19355,0.74658
516.503,26.82906,-3.82425,0.18081,0.74616
517.003,26.84405,-3.82513,0.17811,0.74575
517.503,26.85898,-3.82588,0.16725,0.74533
518.003,26.874,-3.82588,0.157,0.74491
518.503,26.88897,-3.82584,0.15325,0.7445
519.003,26.904,-3.82625,0.1448,0.74408
519.503,26.91893,-3.82589,0.13844,0.74367
520.003,26.9339,-3.8259,0.13398,0.74325
520.503,26.94892,-3.82726,0.12628,0.74284
521.003,26.9638,-3.82876,0.12691,0.74242
521.503,26.9788,-3.83042,0.12157,0.74201
522.003,26.99382,-3.83081,0.11798,0.74159
522.503,27.0088,-3.83199,0.1143,0.74118
523.003,27.0238,-3.832,0.1099,0.74076
523.503,27.0388,-3.832,0.1093,0.74035
524.003,27.05398,-3.832,0.10197,0.73994
524.503,27.06901,-3.83201,0.10024,0.73952
525.003,27.08405,-3.8322,0.09911617,0.73911
525.503,27.09915,-3.83329,0.09921505,0.7387
526.003,27.1142,-3.83323,0.09484971,0.73829
526.503,27.12923,-3.83424,0.09413249,0.73788
527.003,27.1443,-3.83464,0.09289273,0.73746
527.503,27.1594,-3.83463,0.09065547,0.73705
528.003,27.1744,-3.83463,0.09134282,0.73664
528.503,27.1894,-3.83463,0.09056763,0.73623
529.003,27.2045,-3.83458,0.08243071,0.73582
529.503,27.2196,-3.83335,0.0878702,0.73541
530.003,27.2347,-3.83334,0.08393276,0.735
530.503,27.2497,-3.83332,0.08495052,0.73459
531.003,27.26483,-3.83332,0.07898825,0.73418
531.503,27.27989,-3.83332,0.08260207,0.73377
532.003,27.295,-3.83337,0.08172124,0.73337
532.503,27.3101,-3.83475,0.08244493,0.73296
533.003,27.32514,-3.83477,0.08052184,0.73255
533.503,27.3402,-3.8363,0.0830344,0.73214
534.003,27.3553,-3.83735,0.08098417,0.73173
534.503,27.37043,-3.83761,0.08066152,0.73133
535.003,27.38552,-3.83877,0.08011261,0.73092
535.503,27.4006,-3.83995,0.08452469,0.73051
536.003,27.41572,-3.84116,0.08255505,0.73011
536.503,27.4308,-3.84153,0.08327216,0.7297
537.003,27.446,-3.84154,0.08126613,0.7293
537.503,27.4611,-3.84154,0.08200472,0.72889
538.003,27.4762,-3.84164,0.08030396,0.72849
538.503,27.4914,-3.84045,0.08140229,0.72808
539.003,27.5066,-3.84023,0.07857525,0.72768
539.503,27.5217,-3.84023,0.08361057,0.72727
540.003,27.53687,-3.84023,0.08147989,0.72687
540.503,27.55204,-3.84023,0.08350066,0.72647
541.003,27.5672,-3.84023,0.08045606,0.72606
541.503,27.5823,-3.84023,0.08302083,0.72566
542.003,27.5975,-3.84023,0.08312863,0.72526
542.503,27.61263,-3.84023,0.07887005,0.72486
543.003,27.6278,-3.84023,0.07911882,0.72446
543.503,27.64293,-3.84023,0.08187573,0.72405
544.003,27.6581,-3.84024,0.08304315,0.72365
544.503,27.67328,-3.83957,0.08111272,0.72325
545.003,27.6884,-3.83888,0.07876652,0.72285
545.503,27.7036,-3.8389,0.08298193,0.72245
546.003,27.71878,-3.83891,0.07848433,0.72205
546.503,27.734,-3.83891,0.08188176,0.72165
547.003,27.74917,-3.83891,0.08512523,0.72125
547.503,27.76434,-3.83893,0.08473107,0.72085
548.003,27.7796,-3.83889,0.08443782,0.72046
548.503,27.79477,-3.84041,0.08422962,0.72006
549.003,27.81,-3.84155,0.08528844,0.71966
549.503,27.82517,-3.84154,0.08496156,0.71926
550.003,27.84037,-3.84155,0.08600019,0.71886
550.503,27.8556,-3.84155,0.08522634,0.71847
551.003,27.8709,-3.84155,0.08574319,0.71807
551.503,27.8861,-3.84154,0.08741607,0.71767
552.003,27.9013,-3.8415,0.08731578,0.71728
552.503,27.91661,-3.84039,0.09217619,0.71688
553.003,27.9318,-3.84024,0.08853825,0.71649
553.503,27.94707,-3.84007,0.08884929,0.71609
554.003,27.96228,-3.83874,0.09266254,0.7157
554.503,27.9775,-3.83754,0.09005026,0.7153
555.003,27.99278,-3.83739,0.09236222,0.71491
555.503,28.00801,-3.83736,0.09239874,0.71452
556.003,28.0233,-3.83721,0.09365223,0.71412
556.503,28.03857,-3.83611,0.09376314,0.71373
557.003,28.0538,-3.83624,0.0937201,0.71334
557.503,28.06908,-3.83745,0.09624827,0.71295
558.003,28.08437,-3.83766,0.09515243,0.71255
558.503,28.0996,-3.83899,0.09743007,0.71216
559.003,28.11492,-3.83899,0.09652142,0.71177
559.503,28.1302,-3.83901,0.09538787,0.71138
560.003,28.14555,-3.83901,0.09612584,0.71099
560.503,28.16088,-3.83901,0.0955286,0.7106
561.003,28.17618,-3.83901,0.09890893,0.71021
561.503,28.1915,-3.83901,0.09687887,0.70982
562.003,28.2068,-3.83901,0.0976829,0.70943
562.503,28.2222,-3.83901,0.09473896,0.70904
563.003,28.2375,-3.83901,0.0962193,0.70865
563.503,28.2528,-3.83901,0.09910915,0.70827
564.003,28.2681,-3.839,0.10049,0.70788
564.503,28.2835,-3.83969,0.09863911,0.70749
565.003,28.2988,-3.84035,0.09819166,0.7071
565.503,28.3141,-3.84034,0.09737246,0.70672
566.003,28.32945,-3.84033,0.10001,0.70633
566.503,28.3448,-3.84122,0.10046,0.70594
567.003,28.36014,-3.84176,0.1008,0.70556
567.503,28.3755,-3.84177,0.10229,0.70517
568.003,28.39085,-3.84176,0.10274,0.70479
568.503,28.4062,-3.84176,0.10416,0.7044
569.003,28.4215,-3.84176,0.10585,0.70402
569.503,28.4368,-3.84176,0.10721,0.70363
570.003,28.45219,-3.84175,0.11153,0.70325
570.503,28.46755,-3.8418,0.11165,0.70287
571.003,28.4829,-3.84148,0.11405,0.70248
571.503,28.49832,-3.84177,0.11375,0.7021
572.003,28.51367,-3.84176,0.11612,0.70172
572.503,28.52903,-3.84176,0.11485,0.70134
573.003,28.54428,-3.84176,0.11415,0.70096
573.503,28.55968,-3.84176,0.11859,0.70057
574.003,28.57507,-3.84169,0.11998,0.70019
574.503,28.59047,-3.84041,0.12021,0.69981
575.003,28.6059,-3.84103,0.12064,0.69943
575.503,28.62136,-3.84177,0.11947,0.69905
576.003,28.6369,-3.84176,0.12213,0.69867
576.503,28.65225,-3.84117,0.11771,0.6983
577.003,28.66775,-3.84018,0.12268,0.69792
577.503,28.68318,-3.83957,0.12051,0.69754
578.003,28.6986,-3.83888,0.12331,0.69716
578.503,28.71401,-3.83886,0.12252,0.69678
579.003,28.7294,-3.83951,0.12275,0.69641
579.503,28.74482,-3.84005,0.12278,0.69603
580.003,28.76026,-3.83868,0.12177,0.69565
580.503,28.7757,-3.83876,0.12245,0.69528
581.003,28.79117,-3.83793,0.12539,0.6949
581.503,28.80665,-3.83734,0.122,0.69452
582.003,28.8222,-3.83737,0.12307,0.69415
582.503,28.83773,-3.83737,0.12446,0.69378
583.003,28.85319,-3.83734,0.12551,0.6934
583.503,28.86867,-3.83792,0.12595,0.69303
584.003,28.88415,-3.83874,0.12597,0.69265
584.503,28.89964,-3.83869,0.12591,0.69228
585.003,28.91508,-3.83869,0.13104,0.69191
585.503,28.93057,-3.83869,0.12729,0.69153
586.003,28.94605,-3.83862,0.1297,0.69116
586.503,28.9615,-3.83725,0.13225,0.69079
587.003,28.9771,-3.83847,0.13356,0.69042
587.503,28.99254,-3.83857,0.1304,0.69005
588.003,29.00805,-3.83858,0.13284,0.68968
588.503,29.02355,-3.83858,0.13388,0.68931
589.003,29.0391,-3.83858,0.13485,0.68894
589.503,29.05462,-3.83943,0.13657,0.68857
590.003,29.0701,-3.84,0.13866,0.6882
590.503,29.08565,-3.84063,0.13789,0.68783
591.003,29.10124,-3.8427,0.13995,0.68746
591.503,29.1168,-3.84262,0.14158,0.68709
592.003,29.1323,-3.84264,0.14041,0.68673
592.503,29.14787,-3.84264,0.13878,0.68636
593.003,29.16345,-3.84264,0.13953,0.68599
593.503,29.179,-3.84264,0.14104,0.68562
594.003,29.1946,-3.84272,0.14281,0.68526
594.503,29.21009,-3.84164,0.14239,0.68489
595.003,29.2256,-3.84117,0.14302,0.68453
595.503,29.24108,-3.84114,0.14163,0.68416
596.003,29.2565,-3.83986,0.14303,0.6838
596.503,29.27198,-3.83982,0.14218,0.68343
597.003,29.28748,-3.83792,0.1469,0.68307
597.503,29.3031,-3.83718,0.14802,0.68271
598.003,29.3187,-3.83712,0.14814,0.68234
598.503,29.33441,-3.83816,0.14878,0.68198
599.003,29.3501,-3.83847,0.15177,0.68162
599.503,29.3657,-3.83847,0.14958,0.68126
600.003,29.3814,-3.83847,0.15115,0.68089
600.503,29.39692,-3.83847,0.15071,0.68053
601.003,29.4125,-3.83847,0.15014,0.68017
601.503,29.42816,-3.83847,0.15254,0.67981
602.003,29.44377,-3.83847,0.15296,0.67945
602.503,29.4594,-3.83847,0.15355,0.67909
603.003,29.475,-3.83847,0.15442,0.67873
603.503,29.49057,-3.83847,0.15252,0.67837
604.003,29.50615,-3.83881,0.15484,0.67801
604.503,29.5218,-3.83982,0.15361,0.67766
605.003,29.5374,-3.83977,0.15458,0.6773
605.503,29.553,-3.83972,0.1555,0.67694
606.003,29.5686,-3.84064,0.15663,0.67658
606.503,29.5843,-3.84188,0.15905,0.67623
607.003,29.5999,-3.84242,0.15954,0.67587
607.503,29.61552,-3.84242,0.16508,0.67551
608.003,29.6311,-3.8424,0.16227,0.67516
608.503,29.64678,-3.84015,0.16332,0.6748
609.003,29.6624,-3.83925,0.16283,0.67445
609.503,29.67807,-3.83923,0.16097,0.6741
610.003,29.6937,-3.83923,0.16333,0.67374
610.503,29.70937,-3.83923,0.16302,0.67339
611.003,29.72502,-3.83923,0.1617,0.67303
611.503,29.7407,-3.83923,0.1639,0.67268
612.003,29.7564,-3.83923,0.16562,0.67233
612.503,29.772,-3.83922,0.16543,0.67198
613.003,29.78775,-3.83805,0.16553,0.67163
613.503,29.8035,-3.83889,0.16881,0.67127
614.003,29.8191,-3.83924,0.17001,0.67092
614.503,29.83483,-3.83915,0.17195,0.67057
615.003,29.8506,-3.84027,0.17256,0.67022
615.503,29.86625,-3.84056,0.17227,0.66987
616.003,29.88192,-3.84055,0.16984,0.66952
616.503,29.8976,-3.84065,0.17152,0.66917
617.003,29.9134,-3.83936,0.17398,0.66883
617.503,29.92908,-3.83899,0.1736,0.66848
618.003,29.9448,-3.83772,0.1737,0.66813
618.503,29.96051,-3.83782,0.17496,0.66778
619.003,29.9762,-3.83895,0.17545,0.66744
619.503,29.992,-3.83912,0.17568,0.66709
619.703,29.9985,-3.83912,0.1753,0.66695