File: 01_Data/ABS/STA/N2/30K_min/ABS_STA_N2_30KData_211020_R2.csv
##Temp./Â°C,Time/min,Mass loss(subtr.2)/mg,DSC(subtr.2)/(mW/mg),Sensit./(uV/mW)
49.456,10.01,0.02467,-0.06542088,1.05401
49.956,10.97209,0.0343233,-0.03593503,1.05402
50.456,11.18441,0.02928129,-0.01123791,1.05403
50.956,11.3278,0.03192165,0.003437714,1.05404
51.456,11.4412,0.03377356,0.02374843,1.05405
51.956,11.53604,0.03310896,0.03856606,1.05405
52.456,11.62116,0.02801715,0.05480742,1.05406
52.956,11.6953,0.02859931,0.06997399,1.05406
53.456,11.76362,0.03162087,0.08246228,1.05406
53.956,11.82498,0.03573323,0.09474773,1.05406
54.456,11.88463,0.03499515,0.1093,1.05406
54.956,11.94053,0.03455774,0.12066,1.05406
55.456,11.994,0.03512549,0.13118,1.05406
55.956,12.0445,0.03580822,0.14113,1.05405
56.456,12.09251,0.03425006,0.15309,1.05405
56.956,12.1389,0.03291707,0.16219,1.05404
57.456,12.18458,0.03211622,0.17083,1.05403
57.956,12.22896,0.03627469,0.1802,1.05403
58.456,12.27126,0.03527516,0.18884,1.05402
58.956,12.31255,0.0367294,0.19861,1.054
59.456,12.35277,0.03584753,0.20421,1.05399
59.956,12.39232,0.0339583,0.21475,1.05398
60.456,12.4312,0.03753467,0.22044,1.05396
60.956,12.46903,0.03717718,0.22723,1.05395
61.456,12.50607,0.03833263,0.23474,1.05393
61.956,12.54256,0.03820734,0.244,1.05391
62.456,12.57835,0.03613185,0.24834,1.05389
62.956,12.61373,0.03666077,0.25603,1.05387
63.456,12.64862,0.04017835,0.26048,1.05385
63.956,12.68328,0.03688904,0.26725,1.05382
64.456,12.71739,0.03497911,0.2725,1.0538
64.956,12.75078,0.03562938,0.27945,1.05377
65.456,12.78407,0.0347339,0.28646,1.05375
65.956,12.8162,0.03574113,0.28938,1.05372
66.456,12.84861,0.03518241,0.29599,1.05369
66.956,12.88075,0.03749059,0.30145,1.05366
67.456,12.9132,0.03861709,0.30692,1.05363
67.956,12.94476,0.03864723,0.31202,1.05359
68.456,12.97594,0.03824555,0.31759,1.05356
68.956,13.00695,0.03654787,0.32196,1.05353
69.456,13.03773,0.03686186,0.32677,1.05349
69.956,13.06827,0.03808848,0.33162,1.05345
70.456,13.09855,0.04000642,0.33419,1.05341
70.956,13.12873,0.04092463,0.3413,1.05337
71.456,13.15833,0.03959838,0.34852,1.05333
71.956,13.188,0.03860161,0.35119,1.05329
72.456,13.21729,0.03767248,0.35411,1.05324
72.956,13.24659,0.0374161,0.36098,1.0532
73.456,13.2755,0.03743217,0.36382,1.05315
73.956,13.3042,0.03795985,0.36914,1.05311
74.456,13.33279,0.03915714,0.37323,1.05306
74.956,13.3614,0.04031863,0.381,1.05301
75.456,13.3896,0.03977542,0.38426,1.05296
75.956,13.41755,0.03959796,0.3903,1.05291
76.456,13.4451,0.03921874,0.3936,1.05285
76.956,13.4725,0.03906181,0.39616,1.0528
77.456,13.49974,0.03927003,0.40324,1.05274
77.956,13.5264,0.03957947,0.40744,1.05269
78.456,13.55362,0.03913694,0.41118,1.05263
78.956,13.58063,0.03892956,0.41436,1.05257
79.456,13.60803,0.03873081,0.41796,1.05251
79.956,13.63481,0.03860118,0.4194,1.05245
80.456,13.66135,0.04053599,0.42552,1.05239
80.956,13.6874,0.04198966,0.4312,1.05232
81.456,13.71352,0.04202676,0.4341,1.05226
81.956,13.7393,0.04096601,0.43856,1.05219
82.456,13.7654,0.04025164,0.43938,1.05213
82.956,13.79093,0.03998428,0.44265,1.05206
83.456,13.81642,0.03965225,0.44606,1.05199
83.956,13.84175,0.03879835,0.44964,1.05192
84.456,13.86685,0.03994627,0.45116,1.05185
84.956,13.89185,0.04020421,0.45273,1.05177
85.456,13.91681,0.04052212,0.45866,1.0517
85.956,13.94155,0.04033488,0.46058,1.05162
86.456,13.96616,0.04033027,0.4615,1.05155
86.956,13.99051,0.0401663,0.46439,1.05147
87.456,14.01481,0.04018751,0.4692,1.05139
87.956,14.0389,0.04115789,0.4687,1.05131
88.456,14.06286,0.04214512,0.47242,1.05123
88.956,14.0868,0.04117993,0.47127,1.05115
89.456,14.1104,0.04067477,0.47173,1.05107
89.956,14.134,0.03922233,0.47362,1.05098
90.456,14.1574,0.040465,0.47557,1.0509
90.956,14.18041,0.04050091,0.4744,1.05081
91.456,14.20355,0.04107632,0.47811,1.05072
91.956,14.22655,0.04246648,0.48218,1.05064
92.456,14.24944,0.04340293,0.4808,1.05055
92.956,14.2723,0.04314928,0.48417,1.05045
93.456,14.29478,0.04414355,0.4841,1.05036
93.956,14.3173,0.04442892,0.48842,1.05027
94.456,14.33985,0.04441696,0.4929,1.05018
94.956,14.36229,0.04332998,0.49292,1.05008
95.456,14.38461,0.04290498,0.49851,1.04998
95.956,14.40665,0.04113093,0.5009,1.04989
96.456,14.4287,0.04161148,0.50387,1.04979
96.956,14.45049,0.04236465,0.5068,1.04969
97.456,14.47224,0.04292799,0.51074,1.04959
97.956,14.49407,0.04386491,0.5143,1.04948
98.456,14.51561,0.04554379,0.51996,1.04938
98.956,14.53721,0.04528168,0.52388,1.04928
99.456,14.55874,0.04470356,0.52908,1.04917
99.956,14.58012,0.04530345,0.53361,1.04906
100.456,14.6014,0.04453681,0.53548,1.04896
100.956,14.6226,0.04539262,0.54231,1.04885
101.456,14.64366,0.04452077,0.54541,1.04874
101.956,14.66465,0.04376076,0.54918,1.04863
102.456,14.6857,0.04216909,0.55478,1.04851
102.956,14.7065,0.04064987,0.55993,1.0484
103.456,14.7273,0.04036226,0.56608,1.04829
103.956,14.74797,0.04047175,0.56888,1.04817
104.456,14.76847,0.04176904,0.57356,1.04806
104.956,14.789,0.04187999,0.58094,1.04794
105.456,14.8094,0.0428879,0.58646,1.04782
105.956,14.8298,0.04187788,0.5913,1.0477
106.456,14.85,0.0435404,0.59609,1.04758
106.956,14.8702,0.04454021,0.60014,1.04746
107.456,14.8903,0.04487493,0.61108,1.04733
107.956,14.9102,0.04830507,0.61574,1.04721
108.456,14.9303,0.05342456,0.62361,1.04708
108.956,14.9502,0.05294152,0.6308,1.04696
109.456,14.97015,0.04545263,0.63663,1.04683
109.956,14.99022,0.04098088,0.64407,1.0467
110.456,15.01,0.04211462,0.65238,1.04657
110.956,15.0297,0.04427857,0.66368,1.04644
111.456,15.04946,0.0458193,0.67063,1.04631
111.956,15.06903,0.04559223,0.67701,1.04618
112.456,15.08849,0.0454505,0.68687,1.04604
112.956,15.10798,0.04513188,0.69561,1.04591
113.456,15.12744,0.04563397,0.70423,1.04577
113.956,15.14678,0.04563048,0.71345,1.04564
114.456,15.166,0.04569319,0.71979,1.0455
114.956,15.185,0.04521579,0.72828,1.04536
115.456,15.20413,0.04541727,0.73193,1.04522
115.956,15.2232,0.04555573,0.73791,1.04508
116.456,15.2424,0.04583591,0.73949,1.04494
116.956,15.26145,0.0439748,0.74184,1.04479
117.456,15.28075,0.04414174,0.74658,1.04465
117.956,15.2998,0.04364846,0.74336,1.0445
118.456,15.3187,0.04364933,0.74531,1.04436
118.956,15.3375,0.04364996,0.74498,1.04421
119.456,15.3563,0.0436509,0.74565,1.04406
119.956,15.375,0.04366189,0.74562,1.04391
120.456,15.39364,0.04381135,0.74463,1.04376
120.956,15.4122,0.04528588,0.74541,1.04361
121.456,15.4307,0.04413922,0.74392,1.04345
121.956,15.44917,0.04381753,0.74468,1.0433
122.456,15.4677,0.04516074,0.74634,1.04315
122.956,15.4861,0.04512635,0.7463,1.04299
123.456,15.5044,0.0461964,0.74868,1.04283
123.956,15.5228,0.0476778,0.75253,1.04267
124.456,15.5411,0.05134725,0.75591,1.04252
124.956,15.5593,0.05314579,0.75645,1.04236
125.456,15.57756,0.05079737,0.756,1.04219
125.956,15.59571,0.04465667,0.7591,1.04203
126.456,15.6138,0.04257228,0.76101,1.04187
126.956,15.63175,0.04511278,0.7648,1.04171
127.456,15.64979,0.04594323,0.76753,1.04154
127.956,15.6677,0.04771379,0.76762,1.04137
128.456,15.68571,0.04752442,0.77096,1.04121
128.956,15.70354,0.04790106,0.77213,1.04104
129.456,15.72134,0.04791802,0.77643,1.04087
129.956,15.73908,0.04792013,0.77862,1.0407
130.456,15.7568,0.04791979,0.77934,1.04053
130.956,15.7744,0.04791699,0.78373,1.04036
131.456,15.792,0.04790127,0.7883,1.04018
131.956,15.80964,0.04854764,0.79003,1.04001
132.456,15.8272,0.04938814,0.79151,1.03983
132.956,15.8446,0.04940859,0.79335,1.03966
133.456,15.8621,0.05074985,0.79306,1.03948
133.956,15.8795,0.05066881,0.79428,1.0393
134.456,15.89686,0.05071947,0.7954,1.03912
134.956,15.91421,0.04967197,0.79744,1.03894
135.456,15.93157,0.04936597,0.79658,1.03876
135.956,15.9489,0.04930804,0.79636,1.03858
136.456,15.9663,0.04982652,0.79573,1.03839
136.956,15.98351,0.04909885,0.79668,1.03821
137.456,16.0007,0.0477141,0.79821,1.03802
137.956,16.0179,0.04828896,0.79821,1.03784
138.456,16.03481,0.04709861,0.79823,1.03765
138.956,16.05186,0.04715639,0.79939,1.03746
139.456,16.0689,0.04716047,0.80062,1.03727
139.956,16.0859,0.04716575,0.80056,1.03708
140.456,16.10285,0.04653933,0.8021,1.03689
140.956,16.11988,0.04704026,0.80391,1.0367
141.456,16.13676,0.04688958,0.80717,1.03651
141.956,16.15371,0.04632608,0.80686,1.03631
142.456,16.17057,0.0470008,0.80937,1.03612
142.956,16.18741,0.04556474,0.81203,1.03592
143.456,16.20422,0.04572509,0.81368,1.03572
143.956,16.22097,0.0468553,0.81515,1.03553
144.456,16.23764,0.04682312,0.81632,1.03533
144.956,16.2543,0.04682579,0.82126,1.03513
145.456,16.271,0.04682063,0.82165,1.03493
145.956,16.28755,0.0472932,0.82246,1.03472
146.456,16.30418,0.04827392,0.82598,1.03452
146.956,16.32078,0.04708355,0.82741,1.03432
147.456,16.33735,0.04722798,0.82972,1.03411
147.956,16.35379,0.04683407,0.83157,1.03391
148.456,16.37027,0.04660899,0.83259,1.0337
148.956,16.38674,0.04700203,0.83665,1.03349
149.456,16.4032,0.0479812,0.83935,1.03328
149.956,16.4195,0.04792777,0.83868,1.03307
150.456,16.43592,0.04891989,0.8449,1.03286
150.956,16.45234,0.0488561,0.84425,1.03265
151.456,16.46869,0.04891405,0.8493,1.03244
151.956,16.4849,0.04891091,0.85175,1.03223
152.456,16.50112,0.04890937,0.85589,1.03201
152.956,16.51742,0.04892131,0.85798,1.0318
153.456,16.53363,0.04906757,0.86138,1.03158
153.956,16.54975,0.05043615,0.86576,1.03136
154.456,16.5659,0.05006391,0.86678,1.03115
154.956,16.58214,0.0494303,0.86963,1.03093
155.456,16.59831,0.04974623,0.87314,1.03071
155.956,16.61444,0.04976636,0.8756,1.03049
156.456,16.63061,0.05015946,0.8786,1.03027
156.956,16.64668,0.05082199,0.88052,1.03004
157.456,16.6627,0.05078789,0.88348,1.02982
157.956,16.6787,0.05076403,0.88656,1.02959
158.456,16.69471,0.05035007,0.89166,1.02937
158.956,16.71071,0.04946788,0.8919,1.02914
159.456,16.72666,0.04937095,0.89327,1.02892
159.956,16.74268,0.04781797,0.89728,1.02869
160.456,16.75861,0.04793842,0.89814,1.02846
160.956,16.77448,0.04793072,0.90318,1.02823
161.456,16.79031,0.04792871,0.90611,1.028
161.956,16.80617,0.04694162,0.90968,1.02777
162.456,16.82205,0.04663169,0.91233,1.02753
162.956,16.8379,0.04660405,0.91226,1.0273
163.456,16.85376,0.04657116,0.91718,1.02707
163.956,16.8696,0.04722671,0.92141,1.02683
164.456,16.88533,0.04795977,0.92629,1.02659
164.956,16.90105,0.0479035,0.92778,1.02636
165.456,16.91675,0.04858076,0.92959,1.02612
165.956,16.93244,0.04924621,0.935,1.02588
166.456,16.94811,0.04923932,0.9361,1.02564
166.956,16.9638,0.0492399,0.93755,1.0254
167.456,16.97945,0.04923996,0.94259,1.02516
167.956,16.99509,0.04923808,0.94591,1.02491
168.456,17.01069,0.04923657,0.94671,1.02467
168.956,17.02628,0.04906061,0.948,1.02443
169.456,17.0418,0.04903218,0.95433,1.02418
169.956,17.0574,0.04902631,0.95564,1.02394
170.456,17.07295,0.04899978,0.95809,1.02369
170.956,17.08841,0.04954902,0.96087,1.02344
171.456,17.10387,0.05039256,0.96562,1.02319
171.956,17.11934,0.05033839,0.96688,1.02294
172.456,17.13478,0.05033891,0.96975,1.02269
172.956,17.15016,0.05033994,0.97159,1.02244
173.456,17.16565,0.05034685,0.9732,1.02219
173.956,17.18111,0.05035963,0.9762,1.02194
174.456,17.19657,0.04969847,0.98108,1.02168
174.956,17.21194,0.04902545,0.98237,1.02143
175.456,17.22724,0.04903085,0.98403,1.02117
175.956,17.24263,0.04903012,0.99053,1.02092
176.456,17.2578,0.04902987,0.98979,1.02066
176.956,17.27306,0.04902885,0.99382,1.0204
177.456,17.28828,0.04903509,0.99417,1.02014
177.956,17.3035,0.04834186,0.99606,1.01988
178.456,17.31877,0.04768446,1.00152,1.01962
178.956,17.33391,0.04842756,1.00323,1.01936
179.456,17.34913,0.04903354,1.00461,1.0191
179.956,17.36436,0.04898311,1.00895,1.01883
180.456,17.37949,0.04963699,1.01249,1.01857
180.956,17.39462,0.05039692,1.01425,1.0183
181.456,17.40963,0.05033337,1.01457,1.01804
181.956,17.42464,0.04988228,1.01817,1.01777
182.456,17.43967,0.04881329,1.02076,1.0175
182.956,17.45467,0.04881409,1.02339,1.01724
183.456,17.46971,0.04880997,1.02708,1.01697
183.956,17.48471,0.04881162,1.02679,1.0167
184.456,17.4998,0.04880923,1.03046,1.01643
184.956,17.5149,0.04868203,1.03454,1.01615
185.456,17.52983,0.0482481,1.03562,1.01588
185.956,17.54478,0.0486178,1.03726,1.01561
186.456,17.5597,0.04857952,1.03905,1.01534
186.956,17.57465,0.04858092,1.04135,1.01506
187.456,17.58952,0.04857822,1.04537,1.01478
187.956,17.6045,0.04849646,1.04924,1.01451
188.456,17.61938,0.0495153,1.04859,1.01423
188.956,17.63419,0.04990773,1.05342,1.01395
189.456,17.64894,0.04989772,1.05543,1.01367
189.956,17.6637,0.04986092,1.05821,1.01339
190.456,17.67856,0.05043996,1.06102,1.01311
190.956,17.69332,0.05127153,1.06092,1.01283
191.456,17.70808,0.05121475,1.06475,1.01255
191.956,17.72285,0.05121851,1.06557,1.01227
192.456,17.73767,0.05122324,1.06807,1.01198
192.956,17.75242,0.05124399,1.07062,1.0117
193.456,17.7671,0.050804,1.07405,1.01141
193.956,17.78177,0.04936519,1.07654,1.01113
194.456,17.79632,0.04850373,1.07652,1.01084
194.956,17.81084,0.0485478,1.07933,1.01055
195.456,17.82549,0.04749173,1.08217,1.01026
195.956,17.8401,0.04726085,1.08705,1.00998
196.456,17.85473,0.04725638,1.08698,1.00969
196.956,17.86937,0.04726011,1.08944,1.0094
197.456,17.8841,0.04726007,1.09171,1.0091
197.956,17.89883,0.04726,1.0956,1.00881
198.456,17.9134,0.04726,1.0964,1.00852
198.956,17.92804,0.04726,1.09905,1.00822
199.456,17.94262,0.04726,1.10052,1.00793
199.956,17.9572,0.04726,1.10231,1.00763
200.456,17.97171,0.04726,1.10563,1.00734
200.956,17.98626,0.04726,1.10904,1.00704
201.456,18.00079,0.04726,1.10899,1.00674
201.956,18.0153,0.04726,1.11223,1.00644
202.456,18.02975,0.04726,1.11301,1.00615
202.956,18.04425,0.0472601,1.1165,1.00585
203.456,18.05872,0.04725973,1.11547,1.00554
203.956,18.07319,0.0472559,1.118,1.00524
204.456,18.08766,0.04742946,1.1205,1.00494
204.956,18.10216,0.04865089,1.12085,1.00464
205.456,18.11662,0.04865789,1.12581,1.00433
205.956,18.13106,0.04751993,1.12572,1.00403
206.456,18.1455,0.04723864,1.12768,1.00372
206.956,18.15995,0.04727293,1.13185,1.00342
207.456,18.17434,0.04604522,1.13099,1.00311
207.956,18.1887,0.04592161,1.13432,1.0028
208.456,18.20303,0.0469323,1.13557,1.0025
208.956,18.2174,0.04758061,1.1392,1.00219
209.456,18.23171,0.0502382,1.13999,1.00188
209.956,18.246,0.05042751,1.14117,1.00157
210.456,18.26035,0.05043979,1.14478,1.00126
210.956,18.27468,0.05043978,1.14494,1.00094
211.456,18.28905,0.05044097,1.14704,1.00063
211.956,18.3034,0.05046022,1.14843,1.00032
212.456,18.31764,0.05034377,1.1486,1.0
212.956,18.33199,0.05149912,1.15144,0.99969
213.456,18.3462,0.0517324,1.15448,0.99937
213.956,18.3605,0.05298195,1.15331,0.99906
214.456,18.3748,0.05337641,1.15955,0.99874
214.956,18.38899,0.05438797,1.15797,0.99842
215.456,18.4034,0.05439547,1.16182,0.99811
215.956,18.4176,0.05440041,1.16329,0.99779
216.456,18.43187,0.05439907,1.16482,0.99747
216.956,18.44612,0.05441026,1.16484,0.99715
217.456,18.46037,0.05440888,1.1671,0.99683
217.956,18.47455,0.05377208,1.16901,0.9965
218.456,18.48875,0.05170593,1.16871,0.99618
218.956,18.50295,0.05141564,1.17178,0.99586
219.456,18.5171,0.05016467,1.17073,0.99553
219.956,18.53131,0.0501363,1.17346,0.99521
220.456,18.54547,0.04974897,1.17497,0.99488
220.956,18.5596,0.04752718,1.17491,0.99456
221.456,18.57378,0.04753053,1.17822,0.99423
221.956,18.58788,0.04732243,1.18024,0.9939
222.456,18.60204,0.04585115,1.18212,0.99358
222.956,18.61616,0.04597592,1.18352,0.99325
223.456,18.6303,0.04595098,1.18627,0.99292
223.956,18.6445,0.04591037,1.18687,0.99259
224.456,18.65858,0.04647615,1.18625,0.99226
224.956,18.6727,0.04756238,1.1899,0.99193
225.456,18.68683,0.04746824,1.1896,0.99159
225.956,18.70094,0.04789914,1.19199,0.99126
226.456,18.71503,0.04804018,1.19263,0.99093
226.956,18.72906,0.04746924,1.19414,0.99059
227.456,18.74315,0.04748118,1.19695,0.99026
227.956,18.7572,0.04749255,1.19768,0.98992
228.456,18.77127,0.04749426,1.19923,0.98959
228.956,18.78527,0.04742639,1.20035,0.98925
229.456,18.79932,0.04811144,1.20374,0.98891
229.956,18.81334,0.04792758,1.20352,0.98858
230.456,18.8274,0.04745776,1.2068,0.98824
230.956,18.8414,0.04701365,1.20769,0.9879
231.456,18.8554,0.0460105,1.20762,0.98756
231.956,18.8694,0.04545799,1.21038,0.98722
232.456,18.8834,0.04411519,1.2092,0.98688
232.956,18.89744,0.0422368,1.21084,0.98653
233.456,18.91142,0.04009528,1.21234,0.98619
233.956,18.92543,0.03936618,1.21562,0.98585
234.456,18.9394,0.04259009,1.21728,0.9855
234.956,18.9534,0.04601142,1.2166,0.98516
235.456,18.96741,0.04874505,1.21971,0.98481
235.956,18.98139,0.0490185,1.21846,0.98447
236.456,18.99529,0.04756437,1.22023,0.98412
236.956,19.00919,0.04584555,1.22297,0.98378
237.456,19.02315,0.04584272,1.22275,0.98343
237.956,19.03707,0.04583852,1.22426,0.98308
238.456,19.051,0.04583707,1.22512,0.98273
238.956,19.06495,0.04589402,1.227,0.98238
239.456,19.0789,0.04518249,1.229,0.98203
239.956,19.0929,0.04342878,1.23074,0.98168
240.456,19.10679,0.0418965,1.22925,0.98133
240.956,19.12068,0.04060761,1.23324,0.98098
241.456,19.1346,0.04119795,1.23226,0.98063
241.956,19.14848,0.04382028,1.23403,0.98027
242.456,19.1624,0.04768623,1.2338,0.97992
242.956,19.17624,0.04799009,1.2374,0.97956
243.456,19.19014,0.04935919,1.23716,0.97921
243.956,19.20405,0.04979107,1.24002,0.97885
244.456,19.21791,0.04870577,1.24012,0.9785
244.956,19.23177,0.04773232,1.24251,0.97814
245.456,19.24561,0.0462756,1.24418,0.97778
245.956,19.2594,0.04438691,1.24396,0.97743
246.456,19.27328,0.04320504,1.24672,0.97707
246.956,19.2871,0.04204194,1.24748,0.97671
247.456,19.30095,0.04198215,1.24678,0.97635
247.956,19.3148,0.04251891,1.24881,0.97599
248.456,19.32862,0.04299127,1.24945,0.97563
248.956,19.3425,0.04231306,1.25179,0.97527
249.456,19.3563,0.04291594,1.25074,0.9749
249.956,19.37009,0.04287458,1.253,0.97454
250.456,19.3839,0.04150418,1.25271,0.97418
250.956,19.39773,0.0413591,1.25715,0.97381
251.456,19.41153,0.04142727,1.25729,0.97345
251.956,19.42531,0.04208718,1.25782,0.97309
252.456,19.43908,0.04198331,1.25822,0.97272
252.956,19.45284,0.04289171,1.2568,0.97235
253.456,19.46658,0.04335572,1.26031,0.97199
253.956,19.48036,0.04332062,1.26133,0.97162
254.456,19.4941,0.04332596,1.2624,0.97125
254.956,19.50778,0.04344807,1.2648,0.97088
255.456,19.5215,0.0451399,1.26643,0.97052
255.956,19.5352,0.04570221,1.26595,0.97015
256.456,19.549,0.04696655,1.26632,0.96978
256.956,19.5627,0.04862858,1.268,0.96941
257.456,19.57648,0.04902042,1.26879,0.96904
257.956,19.59021,0.05022957,1.27095,0.96866
258.456,19.604,0.04893578,1.27135,0.96829
258.956,19.6177,0.04879844,1.27502,0.96792
259.456,19.63139,0.04881483,1.27367,0.96755
259.956,19.6451,0.04848905,1.27597,0.96717
260.456,19.65886,0.0471484,1.27547,0.9668
260.956,19.6726,0.0460241,1.27604,0.96642
261.456,19.6863,0.04442142,1.27762,0.96605
261.956,19.69998,0.0422314,1.27809,0.96567
262.456,19.71379,0.04125296,1.28116,0.9653
262.956,19.7275,0.03742557,1.27808,0.96492
263.456,19.74121,0.03244168,1.27924,0.96454
263.956,19.75489,0.02775719,1.28131,0.96416
264.456,19.76855,0.02781107,1.28186,0.96379
264.956,19.78225,0.03312455,1.28281,0.96341
265.456,19.79593,0.03954081,1.28309,0.96303
265.956,19.8096,0.04259879,1.28253,0.96265
266.456,19.82333,0.04154401,1.28595,0.96227
266.956,19.83701,0.03593054,1.2873,0.96189
267.456,19.85064,0.03161404,1.28732,0.9615
267.956,19.86431,0.02991646,1.28733,0.96112
268.456,19.878,0.03342829,1.28931,0.96074
268.956,19.89162,0.04322304,1.28713,0.96036
269.456,19.90529,0.0495924,1.28955,0.95997
269.956,19.91892,0.05250539,1.2881,0.95959
270.456,19.93261,0.05065425,1.29077,0.95921
270.956,19.94629,0.04652005,1.2903,0.95882
271.456,19.95995,0.04267563,1.29219,0.95843
271.956,19.97364,0.04190532,1.293,0.95805
272.456,19.9873,0.04093748,1.29168,0.95766
272.956,20.00092,0.04100659,1.29565,0.95728
273.456,20.01453,0.04122295,1.29493,0.95689
273.956,20.02815,0.04089077,1.29427,0.9565
274.456,20.04176,0.04078537,1.29763,0.95611
274.956,20.05537,0.04018529,1.29792,0.95572
275.456,20.06897,0.04073815,1.29818,0.95533
275.956,20.08257,0.04016546,1.29976,0.95494
276.456,20.09611,0.03845431,1.29938,0.95455
276.956,20.10971,0.03689468,1.30001,0.95416
277.456,20.12332,0.03457933,1.3,0.95377
277.956,20.137,0.03403576,1.30062,0.95338
278.456,20.1506,0.03296401,1.30158,0.95299
278.956,20.16422,0.03269468,1.30069,0.9526
279.456,20.17786,0.03260331,1.29977,0.9522
279.956,20.19155,0.0337861,1.30402,0.95181
280.456,20.2052,0.03411725,1.30324,0.95141
280.956,20.21882,0.03409887,1.30227,0.95102
281.456,20.23232,0.03409962,1.30489,0.95063
281.956,20.24596,0.03410061,1.30558,0.95023
282.456,20.25956,0.03409953,1.30372,0.94983
282.956,20.27318,0.03407168,1.30433,0.94944
283.456,20.28677,0.03305604,1.30561,0.94904
283.956,20.30034,0.03279485,1.30556,0.94864
284.456,20.314,0.0327846,1.30725,0.94825
284.956,20.3276,0.03278489,1.30574,0.94785
285.456,20.3412,0.03322642,1.30694,0.94745
285.956,20.3548,0.03420263,1.30553,0.94705
286.456,20.3684,0.03410221,1.3051,0.94665
286.956,20.382,0.03410988,1.30741,0.94625
287.456,20.39558,0.03403971,1.30789,0.94585
287.956,20.40924,0.03273518,1.30744,0.94545
288.456,20.4228,0.0327079,1.30816,0.94505
288.956,20.4364,0.03267423,1.30773,0.94465
289.456,20.44997,0.03268002,1.30628,0.94425
289.956,20.46355,0.03268281,1.30662,0.94385
290.456,20.4771,0.03266672,1.3076,0.94344
290.956,20.4907,0.0326567,1.30479,0.94304
291.456,20.50424,0.03167872,1.30618,0.94264
291.956,20.51786,0.03133777,1.30753,0.94223
292.456,20.5315,0.03135562,1.30531,0.94183
292.956,20.54506,0.03134275,1.30494,0.94142
293.456,20.55864,0.0295965,1.30531,0.94102
293.956,20.57225,0.02870747,1.30556,0.94061
294.456,20.58584,0.02873573,1.30313,0.94021
294.956,20.59939,0.02872988,1.30342,0.9398
295.456,20.61297,0.02804629,1.30259,0.93939
295.956,20.6265,0.02799831,1.30166,0.93899
296.456,20.6401,0.02905623,1.3014,0.93858
296.956,20.65362,0.02869974,1.29927,0.93817
297.456,20.66722,0.02960058,1.29945,0.93776
297.956,20.68084,0.02955817,1.29888,0.93735
298.456,20.6944,0.03073995,1.2978,0.93694
298.956,20.70799,0.03063387,1.2983,0.93653
299.456,20.72159,0.02892628,1.29593,0.93612
299.956,20.73517,0.02787443,1.29619,0.93571
300.456,20.74876,0.0279658,1.29585,0.9353
300.956,20.76234,0.02796152,1.29148,0.93489
301.456,20.7759,0.02796018,1.29288,0.93448
301.956,20.78951,0.02795945,1.29133,0.93407
302.456,20.80309,0.02794159,1.28784,0.93366
302.956,20.8167,0.02806926,1.29063,0.93325
303.456,20.83022,0.02684148,1.2893,0.93283
303.956,20.84382,0.02616227,1.28722,0.93242
304.456,20.85738,0.02576635,1.28485,0.93201
304.956,20.8709,0.0254173,1.2822,0.93159
305.456,20.88437,0.02463071,1.28405,0.93118
305.956,20.89784,0.02206966,1.28415,0.93076
306.456,20.91142,0.01941634,1.28168,0.93035
306.956,20.92501,0.01756143,1.27866,0.92993
307.456,20.93854,0.01663916,1.27705,0.92952
307.956,20.95214,0.01979676,1.27715,0.9291
308.456,20.96576,0.02365231,1.27392,0.92868
308.956,20.97945,0.02541322,1.27144,0.92827
309.456,20.99311,0.02549318,1.27332,0.92785
309.956,21.0066,0.02457751,1.2684,0.92743
310.456,21.02017,0.02268289,1.26488,0.92701
310.956,21.03376,0.02127994,1.26207,0.9266
311.456,21.0473,0.02072824,1.26055,0.92618
311.956,21.06085,0.01998706,1.25568,0.92576
312.456,21.07442,0.01991266,1.2565,0.92534
312.956,21.088,0.02054547,1.25202,0.92492
313.456,21.1016,0.02045856,1.25108,0.9245
313.956,21.1151,0.01939471,1.24681,0.92408
314.456,21.12869,0.01904799,1.24125,0.92366
314.956,21.14227,0.01888832,1.24216,0.92324
315.456,21.15581,0.01687163,1.238,0.92282
315.956,21.16936,0.01643469,1.23462,0.9224
316.456,21.18293,0.01633647,1.22985,0.92198
316.956,21.19655,0.01507349,1.22836,0.92155
317.456,21.21013,0.015577,1.22685,0.92113
317.956,21.2237,0.01550886,1.22256,0.92071
318.456,21.23723,0.01448345,1.21925,0.92028
318.956,21.25079,0.0142706,1.21546,0.91986
319.456,21.26435,0.01425226,1.21211,0.91944
319.956,21.27786,0.01426383,1.2066,0.91901
320.456,21.2914,0.01378724,1.20317,0.91859
320.956,21.30494,0.01238787,1.20082,0.91817
321.456,21.3185,0.01095401,1.19584,0.91774
321.956,21.33209,0.009848232,1.19448,0.91732
322.456,21.34563,0.009357914,1.18936,0.91689
322.956,21.3592,0.008449826,1.18784,0.91646
323.456,21.37276,0.008444575,1.17903,0.91604
323.956,21.38635,0.00843904,1.17611,0.91561
324.456,21.39995,0.00844,1.17155,0.91519
324.956,21.41356,0.008440381,1.16854,0.91476
325.456,21.42713,0.00843822,1.16316,0.91433
325.956,21.44071,0.008436643,1.15792,0.9139
326.456,21.45426,0.00767133,1.15405,0.91348
326.956,21.46786,0.007246214,1.15027,0.91305
327.456,21.48143,0.00870428,1.14575,0.91262
327.956,21.49503,0.009141053,1.14019,0.91219
328.456,21.50861,0.01018577,1.13828,0.91176
328.956,21.52218,0.01019685,1.13328,0.91133
329.456,21.5358,0.01020183,1.12918,0.9109
329.956,21.54937,0.00992736,1.12422,0.91047
330.456,21.56294,0.00852666,1.12165,0.91004
330.956,21.57646,0.008788709,1.11757,0.90961
331.456,21.58999,0.00756056,1.11363,0.90918
331.956,21.60353,0.007090054,1.10977,0.90875
332.456,21.61711,0.00681766,1.10497,0.90832
332.956,21.63065,0.006748973,1.1039,0.90789
333.456,21.64423,0.005678315,1.09802,0.90746
333.956,21.65786,0.00591795,1.09542,0.90703
334.456,21.67148,0.005800479,1.09298,0.9066
334.956,21.68509,0.004590933,1.08861,0.90616
335.456,21.6987,0.003399077,1.08357,0.90573
335.956,21.71228,0.00265231,1.08336,0.9053
336.456,21.72591,0.001578075,1.07726,0.90487
336.956,21.73949,0.001529225,1.07456,0.90443
337.456,21.75306,0.001528224,1.07075,0.904
337.956,21.76665,0.001537265,1.06762,0.90357
338.456,21.78025,0.001178681,1.06301,0.90313
338.956,21.7939,-0.0001832666,1.05787,0.9027
339.456,21.80753,-0.001204898,1.05718,0.90226
339.956,21.82113,-0.001379628,1.05273,0.90183
340.456,21.8348,-0.001999697,1.04767,0.90139
340.956,21.84836,-0.002549847,1.0472,0.90096
341.456,21.862,-0.002628645,1.0409,0.90052
341.956,21.87559,-0.002598954,1.03987,0.90009
342.456,21.8892,-0.003225135,1.03379,0.89965
342.956,21.9028,-0.00426577,1.03166,0.89922
343.456,21.9164,-0.00406454,1.0264,0.89878
343.956,21.93006,-0.00517425,1.0219,0.89834
344.456,21.94371,-0.005695975,1.01685,0.89791
344.956,21.9573,-0.00717211,1.01492,0.89747
345.456,21.97096,-0.009632894,1.01016,0.89703
345.956,21.98457,-0.01195582,1.00321,0.8966
346.456,21.9982,-0.01280483,0.99774,0.89616
346.956,22.0118,-0.01125787,0.99537,0.89572
347.456,22.02543,-0.01096936,0.98679,0.89528
347.956,22.0391,-0.01023298,0.9821,0.89484
348.456,22.05274,-0.01007193,0.97836,0.89441
348.956,22.06638,-0.00982309,0.97392,0.89397
349.456,22.08008,-0.009651112,0.96578,0.89353
349.956,22.09376,-0.00900221,0.96001,0.89309
350.456,22.10746,-0.00940845,0.95298,0.89265
350.956,22.1211,-0.008174945,0.94923,0.89221
351.456,22.13482,-0.008678974,0.93938,0.89177
351.956,22.14845,-0.009631279,0.9359,0.89133
352.456,22.16212,-0.01018919,0.93225,0.89089
352.956,22.17576,-0.01184479,0.92478,0.89045
353.456,22.18937,-0.01250297,0.9168,0.89001
353.956,22.20301,-0.01249482,0.90983,0.88957
354.456,22.21666,-0.01244884,0.90089,0.88913
354.956,22.23029,-0.009611411,0.8919,0.88869
355.456,22.24397,-0.008206156,0.88615,0.88825
355.956,22.25763,-0.007686162,0.86704,0.88781
356.456,22.27129,-0.007461545,0.86006,0.88737
356.956,22.28501,-0.01110111,0.85122,0.88693
357.456,22.2987,-0.01479687,0.84914,0.88649
357.956,22.31243,-0.01637218,0.84084,0.88604
358.456,22.32617,-0.01748856,0.83878,0.8856
358.956,22.3398,-0.01864092,0.83126,0.88516
359.456,22.3534,-0.01860239,0.82679,0.88472
359.956,22.367,-0.02032422,0.8231,0.88428
360.456,22.38061,-0.0207786,0.81809,0.88383
360.956,22.3943,-0.02315884,0.81014,0.88339
361.456,22.40795,-0.02451881,0.8041,0.88295
361.956,22.42165,-0.02575022,0.7951,0.88251
362.456,22.43545,-0.0266564,0.78881,0.88206
362.956,22.4493,-0.02726452,0.78001,0.88162
363.456,22.46312,-0.02607958,0.77047,0.88118
363.956,22.47693,-0.02671709,0.76284,0.88073
364.456,22.49071,-0.02647589,0.75499,0.88029
364.956,22.50447,-0.0253427,0.74558,0.87984
365.456,22.51825,-0.02547711,0.73763,0.8794
365.956,22.53199,-0.02502777,0.73069,0.87896
366.456,22.5457,-0.02496332,0.7203,0.87851
366.956,22.5594,-0.02514236,0.71102,0.87807
367.456,22.57313,-0.0253879,0.70635,0.87762
367.956,22.58681,-0.02647076,0.69611,0.87718
368.456,22.60051,-0.02727534,0.68818,0.87673
368.956,22.61425,-0.02931562,0.68023,0.87629
369.456,22.62803,-0.029555,0.67417,0.87584
369.956,22.64177,-0.03143722,0.66318,0.8754
370.456,22.6555,-0.0335067,0.65605,0.87495
370.956,22.66928,-0.03432243,0.64822,0.87451
371.456,22.68307,-0.03581382,0.63906,0.87406
371.956,22.69686,-0.03598806,0.63171,0.87362
372.456,22.71065,-0.03597848,0.62262,0.87317
372.956,22.72448,-0.03642603,0.61483,0.87273
373.456,22.73828,-0.03749945,0.60501,0.87228
373.956,22.75207,-0.03809747,0.5989,0.87183
374.456,22.76589,-0.03903803,0.58955,0.87139
374.956,22.77967,-0.04022654,0.58442,0.87094
375.456,22.79346,-0.04118915,0.5779,0.87049
375.956,22.8072,-0.04244364,0.57084,0.87005
376.456,22.821,-0.04355966,0.56158,0.8696
376.956,22.83474,-0.04497844,0.55502,0.86915
377.456,22.84852,-0.04616395,0.54815,0.86871
377.956,22.86228,-0.04731853,0.53848,0.86826
378.456,22.8761,-0.04872789,0.5321,0.86781
378.956,22.8899,-0.05001614,0.52737,0.86737
379.456,22.90374,-0.05037333,0.52163,0.86692
379.956,22.9176,-0.05141729,0.51466,0.86647
380.456,22.93144,-0.05303104,0.50998,0.86602
380.956,22.94527,-0.05480164,0.50242,0.86558
381.456,22.9591,-0.05578393,0.49864,0.86513
381.956,22.97299,-0.05708926,0.49182,0.86468
382.456,22.98682,-0.0579076,0.48787,0.86423
382.956,23.0006,-0.05945894,0.48229,0.86379
383.456,23.01448,-0.06216724,0.48102,0.86334
383.956,23.02832,-0.06517397,0.47413,0.86289
384.456,23.04214,-0.06703395,0.47329,0.86244
384.956,23.05596,-0.06838171,0.47256,0.86199
385.456,23.0698,-0.06951727,0.4699,0.86155
385.956,23.08363,-0.07124947,0.46814,0.8611
386.456,23.09747,-0.07256127,0.46708,0.86065
386.956,23.11129,-0.0735128,0.46283,0.8602
387.456,23.12518,-0.0751064,0.46353,0.85975
387.956,23.139,-0.07534126,0.46296,0.8593
388.456,23.15292,-0.07599265,0.46487,0.85886
388.956,23.16682,-0.07732302,0.46584,0.85841
389.456,23.18073,-0.0795139,0.4654,0.85796
389.956,23.19451,-0.08241958,0.46946,0.85751
390.456,23.20841,-0.08516201,0.47254,0.85706
390.956,23.22231,-0.0877673,0.47413,0.85661
391.456,23.23625,-0.08931186,0.47817,0.85616
391.956,23.25013,-0.09018123,0.48444,0.85571
392.456,23.264,-0.09153773,0.49034,0.85527
392.956,23.27796,-0.09340676,0.49655,0.85482
393.456,23.29192,-0.09783516,0.50312,0.85437
393.956,23.3058,-0.10174,0.51011,0.85392
394.456,23.31972,-0.10493,0.51852,0.85347
394.956,23.33362,-0.10611,0.52879,0.85302
395.456,23.34756,-0.1069,0.53991,0.85257
395.956,23.36146,-0.10888,0.54855,0.85212
396.456,23.37544,-0.11037,0.56341,0.85167
396.956,23.38938,-0.11362,0.57598,0.85122
397.456,23.4033,-0.11629,0.58754,0.85077
397.956,23.41725,-0.118,0.60256,0.85032
398.456,23.4312,-0.12041,0.6171,0.84988
398.956,23.4451,-0.12323,0.63452,0.84943
399.456,23.45908,-0.12689,0.65231,0.84898
399.956,23.47302,-0.12944,0.67092,0.84853
400.456,23.48701,-0.13268,0.69073,0.84808
400.956,23.50093,-0.13656,0.71257,0.84763
401.456,23.51489,-0.13914,0.73391,0.84718
401.956,23.52882,-0.14217,0.75683,0.84673
402.456,23.54281,-0.14579,0.78124,0.84628
402.956,23.55679,-0.14784,0.80291,0.84583
403.456,23.57078,-0.15187,0.83356,0.84538
403.956,23.58481,-0.15668,0.85663,0.84493
404.456,23.59885,-0.16045,0.88689,0.84448
404.956,23.61288,-0.165,0.91649,0.84403
405.456,23.6269,-0.16811,0.94687,0.84358
405.956,23.64095,-0.17079,0.98105,0.84313
406.456,23.655,-0.17316,1.01315,0.84268
406.956,23.66902,-0.17725,1.04995,0.84223
407.456,23.68306,-0.18141,1.08242,0.84178
407.956,23.69714,-0.18683,1.12443,0.84133
408.456,23.7112,-0.19329,1.16195,0.84088
408.956,23.7253,-0.19765,1.20125,0.84043
409.456,23.73925,-0.20222,1.24417,0.83998
409.956,23.75331,-0.20733,1.28603,0.83953
410.456,23.76734,-0.21171,1.32907,0.83908
410.956,23.7814,-0.21673,1.37565,0.83863
411.456,23.7954,-0.22264,1.42289,0.83818
411.956,23.80941,-0.22707,1.47067,0.83774
412.456,23.82349,-0.23227,1.51696,0.83729
412.956,23.83757,-0.23721,1.57193,0.83684
413.456,23.85162,-0.24266,1.62215,0.83639
413.956,23.86572,-0.25004,1.67304,0.83594
414.456,23.87986,-0.2564,1.73191,0.83549
414.956,23.89396,-0.26266,1.78603,0.83504
415.456,23.9081,-0.27025,1.84395,0.83459
415.956,23.92219,-0.27651,1.90201,0.83414
416.456,23.9363,-0.28346,1.96286,0.83369
416.956,23.95044,-0.29165,2.02577,0.83324
417.456,23.9646,-0.29767,2.08636,0.83279
417.956,23.97871,-0.30521,2.15122,0.83234
418.456,23.99288,-0.31269,2.21502,0.83189
418.956,24.00701,-0.31888,2.28536,0.83144
419.456,24.02117,-0.32707,2.35217,0.83099
419.956,24.03537,-0.33632,2.42223,0.83054
420.456,24.04955,-0.34306,2.49334,0.8301
420.956,24.06369,-0.35289,2.56536,0.82965
421.456,24.07785,-0.3612,2.64225,0.8292
421.956,24.09207,-0.36862,2.71656,0.82875
422.456,24.1063,-0.37912,2.79268,0.8283
422.956,24.12046,-0.38781,2.87107,0.82785
423.456,24.13467,-0.39773,2.94859,0.8274
423.956,24.14893,-0.409,3.02832,0.82695
424.456,24.16321,-0.41739,3.11441,0.8265
424.956,24.1774,-0.42715,3.19525,0.82605
425.456,24.1917,-0.43877,3.28177,0.82561
425.956,24.20596,-0.44701,3.36856,0.82516
426.456,24.22021,-0.45747,3.45597,0.82471
426.956,24.23447,-0.46987,3.54607,0.82426
427.456,24.24871,-0.48169,3.63889,0.82381
427.956,24.263,-0.49684,3.72888,0.82336
428.456,24.27727,-0.5105,3.82117,0.82292
428.956,24.29157,-0.52181,3.91697,0.82247
429.456,24.3059,-0.53516,4.00991,0.82202
429.956,24.32017,-0.54714,4.10635,0.82157
430.456,24.33448,-0.55993,4.20249,0.82112
430.956,24.3488,-0.57617,4.30521,0.82067
431.456,24.36315,-0.58789,4.40499,0.82023
431.956,24.37748,-0.60334,4.50854,0.81978
432.456,24.39183,-0.6214,4.61439,0.81933
432.956,24.4062,-0.63468,4.71528,0.81888
433.456,24.42059,-0.65174,4.82272,0.81844
433.956,24.43499,-0.67115,4.92915,0.81799
434.456,24.4494,-0.68624,5.03919,0.81754
434.956,24.46377,-0.70533,5.14406,0.81709
435.456,24.47818,-0.72289,5.2532,0.81665
435.956,24.49258,-0.73938,5.35895,0.8162
436.456,24.507,-0.76053,5.47331,0.81575
436.956,24.52148,-0.77835,5.58436,0.8153
437.456,24.53592,-0.798,5.69791,0.81486
437.956,24.55037,-0.82257,5.80865,0.81441
438.456,24.56484,-0.84174,5.92139,0.81396
438.956,24.5793,-0.86349,6.03407,0.81352
439.456,24.59382,-0.88776,6.14695,0.81307
439.956,24.60826,-0.90712,6.26064,0.81262
440.456,24.62276,-0.93116,6.37431,0.81218
440.956,24.63726,-0.95427,6.48259,0.81173
441.456,24.65179,-0.97584,6.59144,0.81128
441.956,24.66629,-1.00333,6.70016,0.81084
442.456,24.68081,-1.02645,6.80666,0.81039
442.956,24.6953,-1.05171,6.91633,0.80995
443.456,24.70988,-1.0825,7.02179,0.8095
443.956,24.7244,-1.1057,7.12295,0.80906
444.456,24.73895,-1.13304,7.22464,0.80861
444.956,24.7535,-1.16359,7.32553,0.80816
445.456,24.76811,-1.18754,7.42155,0.80772
445.956,24.78268,-1.21703,7.51473,0.80727
446.456,24.7973,-1.24622,7.60812,0.80683
446.956,24.81186,-1.27335,7.69307,0.80638
447.456,24.82643,-1.30704,7.77714,0.80594
447.956,24.84102,-1.33442,7.85719,0.80549
448.456,24.85559,-1.36271,7.93259,0.80505
448.956,24.8702,-1.39812,8.00266,0.8046
449.456,24.88476,-1.42468,8.07583,0.80416
449.956,24.89935,-1.45645,8.1368,0.80372
450.456,24.91396,-1.49186,8.19644,0.80327
450.956,24.92857,-1.52127,8.24688,0.80283
451.456,24.94315,-1.5569,8.29004,0.80238
451.956,24.95774,-1.5905,8.33279,0.80194
452.456,24.97232,-1.62065,8.36647,0.8015
452.956,24.98695,-1.65845,8.39662,0.80105
453.456,25.00155,-1.68837,8.42209,0.80061
453.956,25.01615,-1.72096,8.4359,0.80017
454.456,25.03075,-1.76038,8.4472,0.79972
454.956,25.0454,-1.78982,8.45365,0.79928
455.456,25.05997,-1.82543,8.45029,0.79884
455.956,25.07453,-1.86274,8.44205,0.79839
456.456,25.0891,-1.89125,8.421,0.79795
456.956,25.1037,-1.92702,8.40276,0.79751
457.456,25.11824,-1.9592,8.37351,0.79707
457.956,25.13281,-1.98895,8.34415,0.79662
458.456,25.1474,-2.02833,8.30911,0.79618
458.956,25.16198,-2.05896,8.26464,0.79574
459.456,25.17657,-2.09606,8.2093,0.7953
459.956,25.1911,-2.13319,8.15428,0.79486
460.456,25.20575,-2.16623,8.08778,0.79442
460.956,25.22032,-2.20008,8.02141,0.79397
461.456,25.23489,-2.23445,7.94958,0.79353
461.956,25.24942,-2.26897,7.87761,0.79309
462.456,25.264,-2.30316,7.79476,0.79265
462.956,25.27846,-2.33546,7.70828,0.79221
463.456,25.2929,-2.36442,7.61382,0.79177
463.956,25.30752,-2.39377,7.523,0.79133
464.456,25.32196,-2.42584,7.42452,0.79089
464.956,25.3366,-2.45868,7.32189,0.79045
465.456,25.35108,-2.48846,7.21725,0.79001
465.956,25.36575,-2.52442,7.10932,0.78957
466.456,25.38038,-2.55329,6.99456,0.78913
466.956,25.3949,-2.58223,6.87633,0.78869
467.456,25.40951,-2.61565,6.75005,0.78825
467.956,25.424,-2.64183,6.62693,0.78781
468.456,25.43851,-2.67131,6.50188,0.78737
468.956,25.453,-2.70365,6.35006,0.78694
469.456,25.4676,-2.72806,6.19861,0.7865
469.956,25.48208,-2.75845,6.04307,0.78606
470.456,25.49663,-2.78678,5.88336,0.78562
470.956,25.51117,-2.81231,5.73842,0.78518
471.456,25.5257,-2.84118,5.575,0.78474
471.956,25.5402,-2.86554,5.41313,0.78431
472.456,25.55473,-2.88966,5.26238,0.78387
472.956,25.56922,-2.91752,5.11371,0.78343
473.456,25.58373,-2.93776,4.96992,0.78299
473.956,25.59826,-2.96032,4.83362,0.78256
474.456,25.61274,-2.98576,4.69172,0.78212
474.956,25.62726,-3.00511,4.54878,0.78168
475.456,25.64176,-3.02749,4.4113,0.78125
475.956,25.65626,-3.04883,4.28082,0.78081
476.456,25.67076,-3.06698,4.15766,0.78038
476.956,25.68528,-3.08923,4.03367,0.77994
477.456,25.69981,-3.10807,3.90675,0.7795
477.956,25.71431,-3.12637,3.78437,0.77907
478.456,25.7288,-3.14722,3.66302,0.77863
478.956,25.74336,-3.16244,3.5447,0.7782
479.456,25.75791,-3.179,3.42573,0.77776
479.956,25.77242,-3.19783,3.30986,0.77733
480.456,25.7869,-3.21232,3.1961,0.77689
480.956,25.80145,-3.22998,3.08912,0.77646
481.456,25.816,-3.2478,2.99109,0.77603
481.956,25.8306,-3.26235,2.88856,0.77559
482.456,25.84508,-3.27886,2.7848,0.77516
482.956,25.85961,-3.2931,2.68519,0.77473
483.456,25.87418,-3.30746,2.58992,0.77429
483.956,25.88877,-3.32484,2.49205,0.77386
484.456,25.90329,-3.33631,2.40289,0.77343
484.956,25.91778,-3.34925,2.31346,0.77299
485.456,25.93233,-3.36461,2.22466,0.77256
485.956,25.9469,-3.37631,2.13775,0.77213
486.456,25.9615,-3.39022,2.0528,0.7717
486.956,25.976,-3.40352,1.97404,0.77127
487.456,25.99062,-3.41425,1.89304,0.77083
487.956,26.00529,-3.427,1.81577,0.7704
488.456,26.01993,-3.43709,1.74431,0.76997
488.956,26.0346,-3.44664,1.6702,0.76954
489.456,26.0492,-3.45714,1.60302,0.76911
489.956,26.06384,-3.46468,1.53356,0.76868
490.456,26.0785,-3.47328,1.47073,0.76825
490.956,26.09309,-3.48321,1.40891,0.76782
491.456,26.1077,-3.49119,1.35359,0.76739
491.956,26.12231,-3.50129,1.29511,0.76696
492.456,26.13699,-3.51121,1.24161,0.76653
492.956,26.15166,-3.51929,1.19026,0.7661
493.456,26.16637,-3.52899,1.1404,0.76567
493.956,26.1811,-3.53623,1.09203,0.76524
494.456,26.19584,-3.54356,1.04725,0.76481
494.956,26.2105,-3.552,1.00869,0.76439
495.456,26.2252,-3.557,0.96249,0.76396
495.956,26.23997,-3.56314,0.92444,0.76353
496.456,26.2546,-3.57058,0.88803,0.7631
496.956,26.2694,-3.57661,0.85446,0.76268
497.456,26.28408,-3.5835,0.82087,0.76225
497.956,26.29885,-3.58953,0.7852,0.76182
498.456,26.3136,-3.5954,0.75339,0.7614
498.956,26.3284,-3.60207,0.72338,0.76097
499.456,26.3432,-3.60607,0.69482,0.76054
499.956,26.35795,-3.60939,0.6648,0.76012
500.456,26.37272,-3.61311,0.6421,0.75969
500.956,26.3875,-3.6156,0.61455,0.75927
501.456,26.40232,-3.61943,0.59063,0.75884
501.956,26.41709,-3.62262,0.56102,0.75842
502.456,26.4318,-3.62578,0.53987,0.75799
502.956,26.44653,-3.63031,0.51852,0.75757
503.456,26.46125,-3.63458,0.4968,0.75714
503.956,26.476,-3.63914,0.47503,0.75672
504.456,26.49077,-3.64402,0.45319,0.75629
504.956,26.50563,-3.64825,0.43017,0.75587
505.456,26.5205,-3.65093,0.41074,0.75545
505.956,26.53541,-3.65532,0.39054,0.75503
506.456,26.5504,-3.65834,0.37064,0.7546
506.956,26.56536,-3.66171,0.35227,0.75418
507.456,26.58028,-3.66544,0.33763,0.75376
507.956,26.59514,-3.66889,0.31539,0.75334
508.456,26.61004,-3.67253,0.29857,0.75291
508.956,26.625,-3.67542,0.28494,0.75249
509.456,26.6398,-3.67753,0.26974,0.75207
509.956,26.6546,-3.67927,0.24906,0.75165
510.456,26.6695,-3.68061,0.23198,0.75123
510.956,26.6844,-3.68195,0.21875,0.75081
511.456,26.6994,-3.68332,0.20432,0.75039
511.956,26.7143,-3.6848,0.18955,0.74997
512.456,26.7293,-3.68637,0.17694,0.74955
512.956,26.7443,-3.68802,0.16201,0.74913
513.456,26.7592,-3.6889,0.15024,0.74871
513.956,26.7741,-3.69044,0.13976,0.74829
514.456,26.7891,-3.6916,0.13045,0.74787
514.956,26.804,-3.69298,0.11397,0.74746
515.456,26.81894,-3.69497,0.10568,0.74704
515.956,26.8339,-3.69698,0.0938365,0.74662
516.456,26.84886,-3.69761,0.08566,0.7462
516.956,26.86379,-3.69827,0.07566367,0.74579
517.456,26.8787,-3.70039,0.06371939,0.74537
517.956,26.8937,-3.70126,0.0581985,0.74495
518.456,26.90867,-3.70204,0.05180471,0.74454
518.956,26.92362,-3.70212,0.04037384,0.74412
519.456,26.9386,-3.70207,0.03588682,0.7437
519.956,26.9535,-3.70356,0.02558308,0.74329
520.456,26.9684,-3.70296,0.02080328,0.74287
520.956,26.98338,-3.70353,0.01543816,0.74246
521.456,26.9984,-3.70344,0.0108839,0.74204
521.956,27.01342,-3.7027,0.00557343,0.74163
522.456,27.02843,-3.70187,0.003844927,0.74122
522.956,27.0434,-3.7019,-0.00303033,0.7408
523.456,27.05854,-3.70192,-0.005274841,0.74039
523.956,27.07358,-3.70209,-0.008903621,0.73998
524.456,27.0885,-3.70314,-0.01402212,0.73956
524.956,27.10357,-3.7042,-0.01822287,0.73915
525.456,27.11856,-3.70532,-0.01950175,0.73874
525.956,27.13358,-3.70687,-0.02303136,0.73833
526.456,27.14862,-3.70752,-0.02452231,0.73791
526.956,27.16362,-3.70751,-0.02832735,0.7375
527.456,27.17868,-3.7075,-0.03258734,0.73709
527.956,27.1936,-3.7075,-0.0315197,0.73668
528.456,27.20866,-3.7075,-0.03627988,0.73627
528.956,27.22373,-3.7075,-0.03453776,0.73586
529.456,27.23876,-3.7075,-0.03921458,0.73545
529.956,27.2538,-3.7075,-0.03980234,0.73504
530.456,27.2689,-3.7075,-0.04046786,0.73463
530.956,27.284,-3.7075,-0.04250021,0.73422
531.456,27.299,-3.7075,-0.04313978,0.73381
531.956,27.3141,-3.70752,-0.04357827,0.7334
532.456,27.32913,-3.70745,-0.04250434,0.733
532.956,27.3442,-3.7089,-0.04404008,0.73259
533.456,27.35928,-3.7093,-0.0443261,0.73218
533.956,27.3744,-3.7103,-0.04319305,0.73177
534.456,27.38948,-3.70926,-0.04354365,0.73137
534.956,27.40454,-3.70926,-0.04369159,0.73096
535.456,27.41965,-3.70926,-0.04116178,0.73055
535.956,27.43478,-3.70926,-0.04622274,0.73015
536.456,27.4499,-3.70926,-0.04605632,0.72974
536.956,27.465,-3.70926,-0.04303601,0.72933
537.456,27.48012,-3.70926,-0.04453371,0.72893
537.956,27.49523,-3.70933,-0.04405093,0.72852
538.456,27.51026,-3.71058,-0.04802713,0.72812
538.956,27.52526,-3.71054,-0.04614831,0.72772
539.456,27.5404,-3.71057,-0.04855771,0.72731
539.956,27.55552,-3.71081,-0.045894,0.72691
540.456,27.5707,-3.71034,-0.04711662,0.72651
540.956,27.5858,-3.71031,-0.04699194,0.7261
541.456,27.6011,-3.70876,-0.04891178,0.7257
541.956,27.6163,-3.70874,-0.04889143,0.7253
542.456,27.63141,-3.70744,-0.04875883,0.72489
542.956,27.64655,-3.70751,-0.04956754,0.72449
543.456,27.66168,-3.70799,-0.04461185,0.72409
543.956,27.6769,-3.70979,-0.04652306,0.72369
544.456,27.69207,-3.71094,-0.04519694,0.72329
544.956,27.70725,-3.71195,-0.05071067,0.72289
545.456,27.72242,-3.71181,-0.05053681,0.72249
545.956,27.73759,-3.71068,-0.04831019,0.72209
546.456,27.7528,-3.71057,-0.04933008,0.72169
546.956,27.7679,-3.70941,-0.05242824,0.72129
547.456,27.7831,-3.70928,-0.04973634,0.72089
547.956,27.79832,-3.70926,-0.05123697,0.72049
548.456,27.81349,-3.70933,-0.05206106,0.72009
548.956,27.82868,-3.7084,-0.05105964,0.7197
549.456,27.84388,-3.70794,-0.05579254,0.7193
549.956,27.8591,-3.70795,-0.0579645,0.7189
550.456,27.8742,-3.70795,-0.05872365,0.71851
550.956,27.88942,-3.70795,-0.05903909,0.71811
551.456,27.90467,-3.70795,-0.06043532,0.71771
551.956,27.91987,-3.70795,-0.05818876,0.71732
552.456,27.935,-3.70891,-0.05393951,0.71692
552.956,27.95025,-3.70947,-0.05526169,0.71653
553.456,27.96548,-3.70979,-0.05618564,0.71613
553.956,27.9807,-3.71082,-0.05788126,0.71574
554.456,27.9958,-3.71079,-0.05802792,0.71534
554.956,28.01107,-3.7108,-0.05724714,0.71495
555.456,28.0263,-3.7108,-0.05817995,0.71455
555.956,28.0415,-3.7108,-0.05906454,0.71416
556.456,28.0567,-3.71085,-0.06006221,0.71377
556.956,28.072,-3.70997,-0.06302333,0.71337
557.456,28.08731,-3.7095,-0.06515411,0.71298
557.956,28.10255,-3.70859,-0.06545606,0.71259
558.456,28.11781,-3.70803,-0.06142317,0.7122
558.956,28.1331,-3.7087,-0.06628262,0.71181
559.456,28.14837,-3.70941,-0.06671566,0.71142
559.956,28.16364,-3.70939,-0.06454962,0.71103
560.456,28.17891,-3.70938,-0.06844031,0.71064
560.956,28.1942,-3.7093,-0.07380749,0.71025
561.456,28.20948,-3.71031,-0.07236566,0.70986
561.956,28.2248,-3.71082,-0.07384089,0.70947
562.456,28.24005,-3.7108,-0.07136208,0.70908
562.956,28.2553,-3.7108,-0.07382879,0.70869
563.456,28.27062,-3.7108,-0.07538115,0.7083
563.956,28.28592,-3.7108,-0.07559582,0.70791
564.456,28.30126,-3.7108,-0.07580242,0.70753
564.956,28.31662,-3.7108,-0.07866034,0.70714
565.456,28.332,-3.7108,-0.07714379,0.70675
565.956,28.3473,-3.7108,-0.07835799,0.70637
566.456,28.36267,-3.7108,-0.07956715,0.70598
566.956,28.378,-3.7108,-0.07919681,0.70559
567.456,28.39333,-3.71078,-0.08048301,0.70521
567.956,28.40853,-3.71086,-0.08458225,0.70482
568.456,28.42375,-3.70876,-0.07713897,0.70444
568.956,28.43913,-3.70782,-0.08025214,0.70405
569.456,28.45445,-3.70694,-0.07724468,0.70367
569.956,28.46977,-3.7063,-0.07883696,0.70329
570.456,28.48514,-3.70629,-0.08047892,0.7029
570.956,28.50057,-3.7063,-0.08265439,0.70252
571.456,28.516,-3.7063,-0.07992241,0.70214
571.956,28.5313,-3.70678,-0.08093874,0.70176
572.456,28.54673,-3.70702,-0.07864679,0.70137
572.956,28.56216,-3.7063,-0.07859469,0.70099
573.456,28.57757,-3.70613,-0.08087626,0.70061
573.956,28.593,-3.70488,-0.08117316,0.70023
574.456,28.6085,-3.70502,-0.07837618,0.69985
574.956,28.6239,-3.70402,-0.08180921,0.69947
575.456,28.6393,-3.70366,-0.08531763,0.69909
575.956,28.65465,-3.70367,-0.0771799,0.69871
576.456,28.67006,-3.70367,-0.08243794,0.69833
576.956,28.68548,-3.70367,-0.0796589,0.69795
577.456,28.7009,-3.70367,-0.0804202,0.69757
577.956,28.71632,-3.70367,-0.08098966,0.6972
578.456,28.73175,-3.70367,-0.0800465,0.69682
578.956,28.7472,-3.70368,-0.08199346,0.69644
579.456,28.7626,-3.70378,-0.08013867,0.69606
579.956,28.77801,-3.70499,-0.07872301,0.69569
580.456,28.79348,-3.705,-0.07950061,0.69531
580.956,28.80892,-3.70608,-0.07627635,0.69494
581.456,28.8243,-3.70682,-0.07368062,0.69456
581.956,28.8397,-3.70911,-0.07367574,0.69418
582.456,28.85512,-3.71033,-0.07513769,0.69381
582.956,28.87055,-3.71116,-0.07613085,0.69344
583.456,28.886,-3.71066,-0.07405518,0.69306
583.956,28.90135,-3.70899,-0.07684416,0.69269
584.456,28.9168,-3.7062,-0.07368124,0.69231
584.956,28.93228,-3.70315,-0.07590105,0.69194
585.456,28.9478,-3.70121,-0.07613322,0.69157
585.956,28.9632,-3.70041,-0.07711309,0.6912
586.456,28.9787,-3.70028,-0.07446568,0.69083
586.956,28.99417,-3.70048,-0.07750192,0.69045
587.456,29.00964,-3.70221,-0.07651736,0.69008
587.956,29.0251,-3.70346,-0.07370866,0.68971
588.456,29.04053,-3.7039,-0.07561656,0.68934
588.956,29.05602,-3.70515,-0.07456577,0.68897
589.456,29.07146,-3.70542,-0.07274378,0.6886
589.956,29.08697,-3.70528,-0.0757085,0.68823
590.456,29.10245,-3.70744,-0.07323124,0.68786
590.956,29.11794,-3.70807,-0.07632285,0.6875
591.456,29.13338,-3.70805,-0.07366186,0.68713
591.956,29.1488,-3.70805,-0.07809497,0.68676
592.456,29.16436,-3.70805,-0.07766767,0.68639
592.956,29.17982,-3.70805,-0.07882124,0.68603
593.456,29.1953,-3.70796,-0.07487774,0.68566
593.956,29.2108,-3.7091,-0.0739635,0.68529
594.456,29.2264,-3.70937,-0.07415042,0.68493
594.956,29.24189,-3.70937,-0.07735309,0.68456
595.456,29.25736,-3.70952,-0.07418036,0.6842
595.956,29.2729,-3.71089,-0.07626322,0.68383
596.456,29.2884,-3.71078,-0.0771318,0.68347
596.956,29.30381,-3.71001,-0.07799858,0.6831
597.456,29.3193,-3.70921,-0.07354758,0.68274
597.956,29.33486,-3.71055,-0.07647985,0.68238
598.456,29.3504,-3.70988,-0.078138,0.68201
598.956,29.366,-3.70921,-0.07595574,0.68165
599.456,29.38155,-3.7092,-0.0726154,0.68129
599.956,29.39712,-3.70672,-0.07176947,0.68093
600.456,29.41266,-3.7061,-0.07244735,0.68057
600.956,29.42822,-3.70456,-0.07123983,0.68021
601.456,29.4438,-3.7042,-0.07440894,0.67985
601.956,29.45934,-3.70302,-0.07715781,0.67948
602.456,29.4749,-3.70303,-0.07415496,0.67913
602.956,29.49042,-3.70302,-0.07144368,0.67877
603.456,29.50595,-3.70407,-0.07303013,0.67841
603.956,29.5215,-3.70512,-0.07278002,0.67805
604.456,29.537,-3.70586,-0.07382853,0.67769
604.956,29.5525,-3.70673,-0.07068128,0.67733
605.456,29.5681,-3.70719,-0.07539439,0.67697
605.956,29.58367,-3.70717,-0.07353317,0.67662
606.456,29.59928,-3.70717,-0.07034519,0.67626
606.956,29.61488,-3.70708,-0.06927735,0.6759
607.456,29.63045,-3.7082,-0.07320591,0.67555
607.956,29.64605,-3.70847,-0.07044123,0.67519
608.456,29.6617,-3.70836,-0.07106572,0.67484
608.956,29.67724,-3.70639,-0.07004846,0.67448
609.456,29.69282,-3.70448,-0.07222526,0.67413
609.956,29.70842,-3.70364,-0.07087874,0.67377
610.456,29.724,-3.70369,-0.07326466,0.67342
610.956,29.7396,-3.70517,-0.07130445,0.67307
611.456,29.7552,-3.70522,-0.06885493,0.67271
611.956,29.77088,-3.70447,-0.07131902,0.67236
612.456,29.78655,-3.70384,-0.06993378,0.67201
612.956,29.8022,-3.70388,-0.07316467,0.67166
613.456,29.81788,-3.70389,-0.07320515,0.67131
613.956,29.83352,-3.70319,-0.0731511,0.67096
614.456,29.84917,-3.70256,-0.07233027,0.67061
614.956,29.8648,-3.70254,-0.07258176,0.67026
615.456,29.88042,-3.70254,-0.07276391,0.66991
615.956,29.89607,-3.70129,-0.07198786,0.66956
616.456,29.9118,-3.70125,-0.07314104,0.66921
616.956,29.9275,-3.70263,-0.0681984,0.66886
617.456,29.9432,-3.70421,-0.0720789,0.66851
617.956,29.9589,-3.70579,-0.06930081,0.66816
618.456,29.97462,-3.70595,-0.07048011,0.66782
618.956,29.9903,-3.70652,-0.07012439,0.66747
619.256,29.99975,-3.70652,-0.07287466,0.66726