File: 01_Data/Bamboo_Rug_Fabric/MCC/Bamboo_Rug_Fabric_MCC_30K_min_211124_R1.txt
Sample ID:	C:\MCC\MCC Cal\Test\Bamboo_RugB_MCC_30K_min_211124_R1.txt
Sample Weight (mg):	4.69
Heating Rate (C/s):	0.5
Combustor Temp (C):	900
N2 Flow Rate (cc/min):	80
O2 Flow Rate (cc/min):	20
Calibration File:	C:\MCC\MCC Cal\Coeff1 JN10440_30_210304.txt.txt
T Correction Coefficients:	0	1.024463	0
Time Shift (s):	14
*
Time (s)	Temperature (C)	N2 flow rate (cc/min)	O2 flow rate (cc/min)	Flow Rate (cc/min)	Oxygen (%)	HRR (W/g)	Heating rate (C/s)
0.000	107.600	80.008	19.997	103.050	20.157	-0.157	0.006
1.500	107.640	80.005	19.996	103.052	20.155	-0.065	-0.006
3.000	107.597	80.006	19.995	103.049	20.156	-0.117	-0.036
4.499	107.595	80.006	19.996	103.049	20.157	-0.148	0.010
6.000	107.627	80.005	19.996	103.053	20.154	0.026	0.006
7.500	107.591	80.005	19.996	103.055	20.156	-0.137	-0.008
9.000	107.585	80.006	19.996	103.061	20.156	-0.093	-0.004
10.500	107.556	80.006	19.995	103.078	20.148	0.426	-0.025
11.999	107.630	80.004	19.996	103.115	20.147	0.504	0.050
13.499	107.633	80.006	19.997	103.171	20.143	0.764	0.019
14.999	107.643	80.006	19.995	103.195	20.137	1.199	0.017
16.500	107.745	80.006	19.995	103.201	20.136	1.288	0.062
18.000	107.826	80.007	19.995	103.219	20.129	1.750	0.071
19.500	107.898	80.008	19.995	103.242	20.129	1.739	0.032
21.000	108.000	80.007	19.996	103.247	20.127	1.915	0.041
22.500	108.166	80.006	19.995	103.259	20.122	2.228	0.112
24.000	108.300	80.007	19.995	103.268	20.119	2.432	0.102
25.500	108.503	80.008	19.995	103.276	20.117	2.568	0.116
27.000	108.633	80.007	19.995	103.280	20.119	2.449	0.090
28.500	108.885	80.005	19.995	103.283	20.119	2.442	0.168
30.000	109.121	80.005	19.995	103.285	20.119	2.416	0.166
31.500	109.360	80.008	19.995	103.287	20.113	2.820	0.167
32.999	109.603	80.005	19.994	103.295	20.114	2.802	0.163
34.499	109.903	80.006	19.996	103.303	20.115	2.737	0.198
36.000	110.234	80.007	19.995	103.307	20.114	2.796	0.210
37.499	110.516	80.005	19.995	103.311	20.113	2.867	0.205
39.000	110.866	80.006	19.996	103.300	20.110	3.084	0.202
40.499	111.233	80.007	19.995	103.311	20.111	2.988	0.247
41.999	111.597	80.007	19.995	103.319	20.105	3.363	0.247
43.499	111.963	80.007	19.995	103.319	20.108	3.192	0.253
44.999	112.373	80.007	19.994	103.318	20.105	3.428	0.272
46.499	112.799	80.007	19.995	103.322	20.105	3.369	0.280
48.000	113.187	80.009	19.997	103.321	20.106	3.326	0.256
49.499	113.611	80.007	19.994	103.327	20.104	3.454	0.263
51.000	114.093	80.007	19.993	103.341	20.103	3.561	0.313
52.501	114.557	80.006	19.994	103.342	20.102	3.584	0.301
53.999	115.045	80.006	19.994	103.345	20.103	3.515	0.312
55.499	115.510	80.006	19.995	103.348	20.101	3.678	0.332
57.000	116.038	80.006	19.995	103.354	20.100	3.723	0.350
58.500	116.507	80.006	19.995	103.358	20.098	3.877	0.316
59.999	117.063	80.005	19.995	103.356	20.097	3.932	0.362
61.500	117.624	80.006	19.996	103.357	20.096	4.040	0.388
63.000	118.157	80.005	19.995	103.353	20.097	3.958	0.337
64.499	118.758	80.006	19.995	103.354	20.098	3.912	0.390
65.999	119.358	80.005	19.995	103.351	20.098	3.873	0.422
67.499	119.924	80.004	19.994	103.349	20.097	3.930	0.386
69.000	120.494	80.006	19.994	103.351	20.097	3.966	0.384
70.499	121.122	80.006	19.994	103.353	20.099	3.814	0.436
72.001	121.734	80.006	19.994	103.357	20.099	3.827	0.401
73.499	122.412	80.007	19.994	103.355	20.097	3.973	0.457
75.000	123.022	80.006	19.994	103.357	20.097	3.923	0.406
76.500	123.663	80.006	19.995	103.355	20.097	3.917	0.441
78.000	124.298	80.005	19.994	103.346	20.101	3.652	0.433
79.499	124.966	80.004	19.993	103.346	20.100	3.724	0.465
80.999	125.636	80.006	19.994	103.349	20.102	3.620	0.443
82.499	126.307	80.006	19.995	103.355	20.105	3.398	0.460
83.999	126.987	80.004	19.993	103.358	20.099	3.778	0.458
85.499	127.685	80.006	19.994	103.355	20.102	3.629	0.454
86.999	128.326	80.007	19.995	103.348	20.099	3.826	0.430
88.501	129.085	80.006	19.994	103.344	20.099	3.813	0.492
89.999	129.779	80.006	19.994	103.342	20.098	3.878	0.476
91.501	130.469	80.007	19.994	103.343	20.098	3.892	0.446
92.999	131.209	80.006	19.995	103.338	20.099	3.837	0.509
94.499	131.895	80.006	19.994	103.335	20.101	3.648	0.463
96.000	132.634	80.007	19.995	103.335	20.101	3.670	0.486
97.501	133.364	80.006	19.994	103.331	20.100	3.772	0.481
98.999	134.100	80.006	19.995	103.329	20.099	3.799	0.457
100.499	134.830	80.005	19.995	103.333	20.103	3.566	0.494
101.999	135.512	80.007	19.995	103.331	20.103	3.519	0.460
103.499	136.235	80.008	19.995	103.326	20.101	3.701	0.488
104.999	136.963	80.007	19.995	103.330	20.102	3.614	0.460
106.499	137.699	80.006	19.995	103.327	20.101	3.638	0.498
107.999	138.475	80.007	19.996	103.322	20.102	3.575	0.520
109.500	139.236	80.005	19.996	103.321	20.097	3.937	0.496
111.001	139.972	80.007	19.995	103.320	20.101	3.694	0.480
112.499	140.723	80.007	19.994	103.321	20.101	3.653	0.481
114.000	141.529	80.007	19.995	103.321	20.100	3.727	0.512
115.500	142.235	80.006	19.994	103.321	20.103	3.549	0.476
117.000	143.006	80.006	19.996	103.320	20.102	3.593	0.485
118.499	143.784	80.007	19.994	103.321	20.100	3.727	0.513
119.999	144.593	80.007	19.995	103.321	20.105	3.397	0.538
121.499	145.306	80.007	19.995	103.319	20.104	3.452	0.472
122.999	146.088	80.008	19.995	103.318	20.106	3.304	0.512
124.499	146.811	80.010	19.995	103.318	20.106	3.304	0.482
126.000	147.563	80.008	19.995	103.318	20.108	3.170	0.498
127.500	148.343	80.008	19.995	103.318	20.103	3.526	0.526
129.000	149.092	80.008	19.995	103.318	20.105	3.391	0.515
130.500	149.882	80.007	19.996	103.317	20.105	3.384	0.521
132.000	150.634	80.005	19.995	103.316	20.107	3.265	0.519
133.500	151.383	80.006	19.996	103.317	20.105	3.395	0.510
135.000	152.196	80.007	19.996	103.317	20.105	3.380	0.532
136.500	152.899	80.006	19.996	103.308	20.106	3.304	0.479
138.000	153.678	80.005	19.996	103.305	20.106	3.355	0.510
139.500	154.398	80.006	19.995	103.317	20.108	3.172	0.463
141.000	155.138	80.005	19.995	103.312	20.106	3.303	0.503
142.500	155.920	80.006	19.994	103.306	20.106	3.344	0.518
144.000	156.645	80.006	19.995	103.309	20.105	3.413	0.472
145.500	157.423	80.005	19.994	103.300	20.103	3.542	0.520
147.000	158.193	80.006	19.995	103.301	20.107	3.244	0.508
148.500	158.922	80.007	19.995	103.292	20.102	3.600	0.482
150.000	159.630	80.007	19.996	103.292	20.104	3.442	0.490
151.500	160.388	80.007	19.995	103.296	20.106	3.342	0.508
153.000	161.155	80.007	19.995	103.294	20.103	3.563	0.510
154.500	161.938	80.008	19.994	103.290	20.103	3.539	0.524
156.000	162.639	80.006	19.994	103.289	20.101	3.687	0.474
157.500	163.400	80.006	19.995	103.288	20.103	3.557	0.489
159.000	164.171	80.006	19.994	103.287	20.100	3.768	0.515
160.500	164.920	80.005	19.994	103.288	20.100	3.744	0.521
162.000	165.665	80.004	19.995	103.287	20.102	3.579	0.504
163.500	166.452	80.006	19.995	103.287	20.106	3.333	0.518
165.000	167.167	80.004	19.994	103.291	20.105	3.407	0.488
166.500	167.897	80.005	19.995	103.290	20.103	3.498	0.485
168.000	168.634	80.006	19.994	103.286	20.101	3.698	0.499
169.500	169.389	80.006	19.995	103.287	20.099	3.829	0.501
171.000	170.111	80.006	19.995	103.286	20.103	3.540	0.486
172.500	170.844	80.006	19.994	103.282	20.098	3.848	0.480
174.000	171.564	80.007	19.994	103.283	20.100	3.712	0.463
175.500	172.316	80.008	19.994	103.283	20.100	3.712	0.491
177.000	173.052	80.008	19.995	103.283	20.099	3.777	0.484
178.500	173.817	80.009	19.995	103.283	20.102	3.610	0.521
180.000	174.508	80.008	19.994	103.282	20.101	3.696	0.497
181.500	175.224	80.009	19.993	103.281	20.100	3.750	0.481
183.000	175.953	80.007	19.994	103.282	20.100	3.716	0.477
184.500	176.693	80.008	19.995	103.281	20.102	3.568	0.511
186.000	177.424	80.007	19.994	103.265	20.103	3.500	0.476
187.500	178.172	80.007	19.994	103.266	20.100	3.770	0.495
189.000	178.878	80.007	19.996	103.269	20.101	3.687	0.482
190.500	179.621	80.008	19.996	103.275	20.099	3.839	0.496
192.000	180.337	80.007	19.996	103.283	20.098	3.883	0.469
193.500	181.080	80.008	19.996	103.283	20.095	4.089	0.478
195.000	181.830	80.009	19.995	103.282	20.098	3.872	0.498
196.500	182.550	80.008	19.996	103.281	20.097	3.913	0.483
198.000	183.270	80.008	19.995	103.282	20.098	3.841	0.470
199.500	184.000	80.010	19.995	103.280	20.098	3.889	0.495
201.000	184.699	80.008	19.994	103.276	20.097	3.978	0.473
202.500	185.444	80.010	19.994	103.279	20.095	4.101	0.485
204.000	186.168	80.009	19.994	103.281	20.096	4.039	0.482
205.500	186.920	80.009	19.994	103.278	20.096	4.022	0.479
207.000	187.588	80.009	19.995	103.281	20.094	4.150	0.451
208.500	188.361	80.007	19.994	103.281	20.094	4.143	0.503
210.000	189.117	80.006	19.994	103.281	20.094	4.120	0.510
211.500	189.803	80.007	19.995	103.281	20.097	3.974	0.470
213.000	190.549	80.005	19.994	103.273	20.095	4.065	0.515
214.500	191.288	80.006	19.996	103.274	20.093	4.246	0.489
216.000	192.054	80.006	19.995	103.281	20.096	4.029	0.508
217.500	192.737	80.005	19.996	103.282	20.096	4.031	0.450
219.000	193.499	80.005	19.995	103.279	20.090	4.394	0.489
220.500	194.251	80.006	19.994	103.279	20.093	4.224	0.488
222.000	194.962	80.005	19.994	103.274	20.091	4.372	0.489
223.500	195.709	80.005	19.995	103.275	20.092	4.314	0.505
225.000	196.441	80.005	19.995	103.278	20.094	4.175	0.497
226.500	197.174	80.005	19.996	103.272	20.085	4.742	0.501
228.000	197.886	80.006	19.995	103.277	20.090	4.417	0.451
229.500	198.639	80.007	19.995	103.271	20.090	4.393	0.498
231.000	199.377	80.007	19.995	103.270	20.090	4.456	0.483
232.500	200.069	80.007	19.995	103.271	20.092	4.312	0.472
234.000	200.851	80.007	19.995	103.255	20.088	4.540	0.520
235.500	201.551	80.006	19.995	103.247	20.086	4.664	0.478
237.000	202.311	80.007	19.996	103.253	20.088	4.584	0.503
238.500	203.014	80.006	19.994	103.249	20.090	4.402	0.498
240.000	203.720	80.006	19.994	103.249	20.086	4.699	0.468
241.500	204.430	80.005	19.994	103.247	20.089	4.490	0.488
243.000	205.173	80.007	19.995	103.245	20.086	4.723	0.482
244.500	205.884	80.005	19.995	103.245	20.088	4.547	0.480
246.000	206.615	80.004	19.995	103.245	20.085	4.777	0.470
247.500	207.295	80.005	19.995	103.249	20.086	4.718	0.450
249.000	207.988	80.006	19.995	103.247	20.086	4.706	0.462
250.500	208.674	80.006	19.995	103.244	20.086	4.704	0.458
252.000	209.395	80.006	19.994	103.244	20.087	4.604	0.457
253.500	210.119	80.006	19.996	103.243	20.087	4.662	0.464
255.000	210.827	80.008	19.996	103.244	20.082	4.957	0.497
256.500	211.499	80.008	19.994	103.243	20.085	4.777	0.449
258.000	212.170	80.008	19.996	103.244	20.084	4.818	0.435
259.500	212.932	80.008	19.994	103.246	20.083	4.870	0.518
261.000	213.586	80.007	19.995	103.243	20.085	4.749	0.438
262.500	214.301	80.009	19.994	103.243	20.082	4.946	0.465
264.000	215.003	80.007	19.994	103.245	20.080	5.090	0.444
265.500	215.654	80.007	19.994	103.246	20.078	5.259	0.441
267.000	216.352	80.006	19.996	103.248	20.079	5.146	0.449
268.500	217.052	80.006	19.995	103.246	20.079	5.212	0.454
270.000	217.782	80.006	19.994	103.248	20.080	5.131	0.483
271.500	218.452	80.007	19.994	103.250	20.080	5.118	0.430
273.000	219.161	80.006	19.994	103.250	20.077	5.331	0.491
274.500	219.857	80.007	19.994	103.253	20.078	5.244	0.469
276.000	220.558	80.008	19.994	103.256	20.077	5.336	0.472
277.500	221.219	80.008	19.994	103.252	20.078	5.276	0.455
279.000	221.895	80.008	19.994	103.248	20.075	5.439	0.443
280.500	222.616	80.007	19.994	103.247	20.077	5.337	0.475
282.000	223.294	80.009	19.995	103.247	20.071	5.716	0.440
283.500	223.981	80.007	19.995	103.250	20.072	5.643	0.469
285.000	224.716	80.008	19.995	103.254	20.070	5.776	0.467
286.500	225.435	80.006	19.996	103.259	20.070	5.778	0.487
288.000	226.111	80.007	19.995	103.264	20.074	5.544	0.460
289.500	226.815	80.006	19.995	103.250	20.073	5.590	0.462
291.000	227.506	80.005	19.994	103.256	20.070	5.772	0.464
292.500	228.213	80.005	19.995	103.255	20.074	5.520	0.466
294.000	228.942	80.006	19.995	103.252	20.071	5.755	0.474
295.500	229.652	80.005	19.995	103.254	20.071	5.700	0.483
297.000	230.355	80.005	19.996	103.257	20.072	5.635	0.464
298.500	231.062	80.005	19.996	103.257	20.068	5.911	0.483
300.000	231.805	80.006	19.996	103.249	20.069	5.887	0.477
301.500	232.544	80.006	19.995	103.250	20.069	5.893	0.510
303.000	233.250	80.006	19.994	103.248	20.067	6.029	0.456
304.500	233.926	80.005	19.994	103.248	20.067	6.033	0.442
306.000	234.696	80.005	19.995	103.247	20.064	6.227	0.530
307.500	235.407	80.005	19.995	103.247	20.059	6.537	0.480
309.000	236.149	80.006	19.995	103.251	20.063	6.265	0.495
310.500	236.857	80.006	19.996	103.254	20.062	6.323	0.462
312.000	237.587	80.005	19.996	103.256	20.060	6.477	0.487
313.500	238.322	80.005	19.997	103.272	20.060	6.507	0.488
315.000	239.116	80.005	19.997	103.275	20.060	6.465	0.551
316.500	239.796	80.005	19.996	103.262	20.059	6.539	0.470
318.000	240.520	80.005	19.996	103.251	20.057	6.724	0.465
319.500	241.263	80.007	19.995	103.256	20.055	6.837	0.501
321.000	242.022	80.005	19.996	103.262	20.055	6.806	0.493
322.500	242.723	80.004	19.995	103.260	20.054	6.928	0.475
324.000	243.472	80.005	19.995	103.263	20.050	7.193	0.503
325.500	244.228	80.004	19.994	103.267	20.050	7.145	0.492
327.000	244.941	80.005	19.994	103.272	20.048	7.312	0.479
328.500	245.740	80.006	19.994	103.274	20.047	7.408	0.537
330.000	246.488	80.005	19.994	103.274	20.039	7.938	0.521
331.500	247.224	80.006	19.995	103.274	20.040	7.857	0.491
333.000	247.953	80.006	19.994	103.279	20.038	8.020	0.482
334.500	248.747	80.007	19.993	103.277	20.037	8.044	0.518
336.000	249.534	80.006	19.994	103.280	20.036	8.150	0.504
337.500	250.312	80.006	19.994	103.278	20.031	8.448	0.516
339.000	251.084	80.006	19.994	103.277	20.028	8.717	0.503
340.500	251.840	80.007	19.994	103.273	20.024	8.956	0.499
342.001	252.606	80.006	19.994	103.280	20.025	8.921	0.499
343.500	253.312	80.005	19.995	103.281	20.019	9.314	0.482
345.000	254.088	80.006	19.994	103.280	20.019	9.327	0.537
346.500	254.869	80.004	19.994	103.282	20.015	9.568	0.504
348.000	255.588	80.004	19.995	103.282	20.014	9.663	0.501
349.500	256.356	80.005	19.993	103.276	20.011	9.843	0.517
351.000	257.140	80.005	19.995	103.280	20.007	10.143	0.500
352.500	257.883	80.005	19.993	103.280	20.001	10.550	0.481
354.000	258.639	80.005	19.993	103.282	19.999	10.708	0.491
355.500	259.437	80.005	19.993	103.284	19.997	10.791	0.515
357.000	260.175	80.007	19.995	103.284	19.995	10.966	0.475
358.500	260.921	80.008	19.994	103.283	19.991	11.233	0.513
360.000	261.687	80.008	19.994	103.283	19.986	11.550	0.524
361.500	262.458	80.008	19.994	103.281	19.982	11.819	0.521
363.000	263.227	80.008	19.994	103.279	19.981	11.940	0.530
364.500	263.953	80.007	19.993	103.278	19.979	12.080	0.497
366.000	264.741	80.007	19.995	103.281	19.968	12.827	0.536
367.500	265.489	80.006	19.994	103.282	19.965	13.029	0.501
369.000	266.230	80.006	19.995	103.282	19.965	13.029	0.485
370.500	267.014	80.006	19.994	103.282	19.964	13.078	0.519
372.000	267.784	80.005	19.995	103.283	19.958	13.486	0.534
373.500	268.550	80.005	19.996	103.289	19.950	14.031	0.509
375.000	269.280	80.005	19.996	103.288	19.949	14.089	0.481
376.500	270.120	80.006	19.996	103.283	19.943	14.501	0.548
378.000	270.888	80.004	19.996	103.284	19.942	14.619	0.529
379.500	271.609	80.006	19.995	103.282	19.936	15.038	0.489
381.000	272.371	80.006	19.996	103.286	19.934	15.156	0.534
382.500	273.176	80.005	19.995	103.287	19.929	15.515	0.548
384.000	273.890	80.005	19.994	103.290	19.923	15.882	0.488
385.500	274.663	80.007	19.996	103.297	19.920	16.135	0.528
387.000	275.435	80.006	19.994	103.290	19.916	16.368	0.523
388.500	276.201	80.005	19.996	103.292	19.913	16.555	0.497
390.000	276.962	80.006	19.996	103.300	19.910	16.821	0.518
391.500	277.755	80.005	19.994	103.292	19.909	16.866	0.516
393.000	278.440	80.005	19.994	103.289	19.904	17.208	0.456
394.500	279.193	80.004	19.995	103.292	19.900	17.507	0.528
396.000	279.958	80.005	19.996	103.300	19.894	17.904	0.505
397.500	280.706	80.004	19.994	103.310	19.892	18.031	0.480
399.000	281.433	80.006	19.996	103.305	19.887	18.388	0.484
400.500	282.219	80.003	19.995	103.291	19.887	18.403	0.510
402.000	282.952	80.004	19.996	103.293	19.882	18.728	0.496
403.500	283.679	80.004	19.996	103.288	19.878	18.981	0.479
405.000	284.402	80.003	19.995	103.291	19.874	19.298	0.497
406.500	285.177	80.004	19.997	103.299	19.878	18.991	0.519
408.000	285.876	80.004	19.996	103.313	19.871	19.460	0.486
409.500	286.639	80.004	19.996	103.312	19.869	19.621	0.484
411.000	287.402	80.006	19.996	103.317	19.867	19.745	0.516
412.500	288.176	80.005	19.995	103.321	19.864	19.975	0.521
414.000	288.856	80.007	19.995	103.319	19.862	20.076	0.456
415.500	289.607	80.006	19.994	103.311	19.859	20.297	0.535
417.000	290.337	80.007	19.994	103.315	19.858	20.365	0.516
418.500	291.083	80.006	19.994	103.320	19.856	20.540	0.482
420.000	291.795	80.006	19.994	103.317	19.851	20.851	0.438
421.500	292.629	80.008	19.995	103.316	19.850	20.944	0.524
423.000	293.320	80.007	19.994	103.314	19.844	21.341	0.466
424.500	294.020	80.006	19.995	103.319	19.845	21.287	0.456
426.000	294.789	80.006	19.995	103.320	19.842	21.454	0.520
427.500	295.517	80.006	19.994	103.320	19.840	21.630	0.500
429.000	296.300	80.006	19.994	103.320	19.837	21.827	0.516
430.500	296.974	80.006	19.995	103.321	19.833	22.075	0.457
432.000	297.728	80.006	19.994	103.322	19.831	22.238	0.500
433.500	298.475	80.007	19.996	103.321	19.832	22.132	0.507
435.000	299.206	80.008	19.993	103.321	19.827	22.503	0.491
436.500	299.938	80.007	19.995	103.321	19.825	22.672	0.484
438.000	300.689	80.006	19.994	103.321	19.822	22.857	0.486
439.500	301.421	80.006	19.994	103.321	19.822	22.835	0.472
441.000	302.139	80.007	19.994	103.321	19.814	23.370	0.482
442.500	302.907	80.008	19.993	103.321	19.811	23.584	0.510
444.000	303.671	80.008	19.994	103.321	19.808	23.778	0.507
445.500	304.400	80.009	19.995	103.319	19.809	23.769	0.510
447.000	305.121	80.006	19.996	103.319	19.801	24.275	0.483
448.500	305.943	80.007	19.994	103.320	19.801	24.322	0.531
450.000	306.653	80.005	19.994	103.321	19.794	24.778	0.482
451.500	307.397	80.005	19.994	103.323	19.793	24.865	0.486
453.000	308.146	80.007	19.994	103.328	19.785	25.393	0.502
454.500	308.903	80.005	19.994	103.326	19.781	25.653	0.505
456.000	309.652	80.005	19.993	103.326	19.776	26.019	0.496
457.500	310.414	80.006	19.994	103.326	19.771	26.343	0.513
459.000	311.186	80.005	19.994	103.327	19.767	26.612	0.512
460.500	311.955	80.005	19.995	103.325	19.763	26.937	0.522
462.000	312.736	80.004	19.995	103.325	19.758	27.269	0.553
463.500	313.477	80.004	19.994	103.327	19.749	27.868	0.471
465.000	314.225	80.006	19.994	103.332	19.750	27.829	0.510
466.500	314.977	80.005	19.994	103.334	19.737	28.699	0.524
468.000	315.719	80.005	19.994	103.342	19.730	29.213	0.509
469.500	316.452	80.004	19.995	103.342	19.725	29.524	0.494
471.000	317.183	80.005	19.994	103.354	19.718	30.038	0.497
472.500	317.929	80.006	19.995	103.357	19.709	30.639	0.498
474.000	318.686	80.005	19.994	103.361	19.701	31.208	0.491
475.500	319.410	80.005	19.995	103.361	19.693	31.772	0.470
477.000	320.102	80.005	19.994	103.363	19.683	32.413	0.474
478.500	320.860	80.004	19.993	103.365	19.676	32.911	0.491
480.000	321.580	80.005	19.996	103.379	19.665	33.697	0.480
481.500	322.303	80.005	19.994	103.391	19.654	34.404	0.488
483.000	323.012	80.005	19.994	103.399	19.644	35.089	0.453
484.500	323.734	80.005	19.994	103.401	19.629	36.124	0.486
486.000	324.496	80.005	19.995	103.402	19.617	36.987	0.506
487.500	325.212	80.005	19.996	103.403	19.606	37.763	0.465
489.000	325.968	80.005	19.994	103.405	19.591	38.801	0.491
490.500	326.746	80.006	19.995	103.419	19.574	39.948	0.502
492.000	327.467	80.005	19.994	103.436	19.557	41.156	0.501
493.500	328.226	80.006	19.996	103.438	19.543	42.130	0.511
495.000	328.969	80.007	19.995	103.440	19.524	43.433	0.493
496.500	329.745	80.006	19.996	103.445	19.504	44.819	0.517
498.000	330.445	80.008	19.995	103.465	19.483	46.252	0.451
499.500	331.198	80.007	19.996	103.477	19.459	47.938	0.501
501.000	331.964	80.007	19.995	103.485	19.432	49.782	0.504
502.500	332.712	80.007	19.996	103.494	19.405	51.622	0.503
504.000	333.483	80.007	19.995	103.507	19.380	53.359	0.512
505.500	334.255	80.006	19.995	103.528	19.349	55.502	0.518
507.000	335.046	80.005	19.994	103.546	19.316	57.825	0.528
508.500	335.797	80.006	19.994	103.556	19.283	60.073	0.498
510.000	336.534	80.005	19.995	103.577	19.247	62.580	0.492
511.500	337.300	80.005	19.995	103.592	19.210	65.128	0.508
513.000	338.087	80.006	19.994	103.598	19.172	67.780	0.536
514.500	338.818	80.007	19.994	103.622	19.133	70.464	0.482
516.000	339.612	80.007	19.995	103.641	19.086	73.709	0.508
517.500	340.374	80.007	19.995	103.656	19.039	76.950	0.525
519.000	341.147	80.007	19.996	103.678	18.996	79.891	0.504
520.500	341.946	80.008	19.996	103.701	18.952	82.912	0.528
522.000	342.669	80.008	19.993	103.711	18.910	85.791	0.475
523.500	343.466	80.008	19.995	103.718	18.865	88.861	0.524
525.000	344.215	80.007	19.994	103.722	18.825	91.626	0.510
526.500	345.027	80.007	19.993	103.716	18.782	94.556	0.516
528.000	345.792	80.006	19.994	103.714	18.756	96.319	0.506
529.500	346.601	80.007	19.994	103.709	18.726	98.318	0.530
531.000	347.376	80.004	19.995	103.693	18.707	99.633	0.528
532.500	348.194	80.006	19.994	103.666	18.700	100.067	0.561
534.000	348.962	80.004	19.994	103.641	18.701	99.951	0.497
535.500	349.744	80.004	19.993	103.614	18.710	99.304	0.526
537.000	350.538	80.004	19.993	103.578	18.737	97.471	0.519
538.500	351.301	80.006	19.994	103.537	18.773	95.002	0.522
540.000	352.134	80.006	19.995	103.495	18.818	91.834	0.547
541.500	352.943	80.005	19.994	103.458	18.880	87.615	0.533
543.000	353.745	80.004	19.994	103.426	18.945	83.158	0.548
544.500	354.540	80.004	19.993	103.400	19.012	78.524	0.549
546.000	355.345	80.006	19.993	103.378	19.080	73.866	0.547
547.500	356.145	80.006	19.994	103.361	19.153	68.820	0.547
549.000	356.890	80.006	19.994	103.357	19.222	64.092	0.510
550.500	357.727	80.006	19.994	103.343	19.284	59.776	0.557
552.000	358.477	80.005	19.993	103.325	19.345	55.620	0.500
553.500	359.307	80.006	19.993	103.320	19.401	51.746	0.546
555.000	360.118	80.006	19.995	103.318	19.452	48.274	0.541
556.500	360.916	80.004	19.995	103.313	19.499	45.030	0.534
558.000	361.685	80.004	19.995	103.299	19.542	42.074	0.513
559.500	362.503	80.004	19.996	103.286	19.576	39.761	0.547
561.000	363.303	80.005	19.996	103.282	19.609	37.466	0.507
562.500	364.098	80.003	19.995	103.282	19.634	35.735	0.513
564.000	364.892	80.005	19.994	103.282	19.662	33.818	0.515
565.500	365.703	80.004	19.995	103.282	19.683	32.381	0.545
567.000	366.485	80.006	19.995	103.280	19.701	31.173	0.536
568.500	367.266	80.005	19.996	103.281	19.715	30.189	0.512
570.000	368.027	80.006	19.995	103.282	19.730	29.177	0.497
571.500	368.825	80.006	19.995	103.282	19.742	28.334	0.531
573.000	369.616	80.006	19.995	103.281	19.751	27.718	0.529
574.500	370.427	80.006	19.995	103.281	19.756	27.342	0.555
576.000	371.160	80.006	19.996	103.279	19.764	26.816	0.493
577.500	371.909	80.006	19.994	103.279	19.768	26.527	0.505
579.000	372.736	80.005	19.994	103.280	19.773	26.212	0.542
580.500	373.549	80.006	19.995	103.280	19.774	26.117	0.549
582.000	374.290	80.006	19.995	103.281	19.776	26.011	0.493
583.500	375.081	80.005	19.995	103.282	19.784	25.470	0.518
585.000	375.847	80.005	19.995	103.283	19.780	25.755	0.497
586.500	376.638	80.004	19.995	103.283	19.781	25.654	0.532
588.000	377.393	80.005	19.994	103.284	19.783	25.552	0.503
589.500	378.197	80.006	19.995	103.283	19.782	25.574	0.507
591.000	378.955	80.004	19.996	103.283	19.784	25.480	0.514
592.500	379.723	80.006	19.995	103.283	19.784	25.424	0.510
594.000	380.486	80.005	19.995	103.283	19.780	25.747	0.500
595.500	381.273	80.008	19.996	103.287	19.780	25.758	0.531
597.000	382.033	80.006	19.995	103.287	19.779	25.808	0.519
598.500	382.836	80.007	19.994	103.286	19.780	25.717	0.540
600.000	383.543	80.007	19.992	103.284	19.776	25.976	0.489
601.500	384.333	80.007	19.993	103.283	19.775	26.072	0.513
603.000	385.123	80.008	19.993	103.287	19.774	26.149	0.508
604.500	385.844	80.007	19.992	103.300	19.774	26.163	0.509
606.000	386.626	80.008	19.994	103.304	19.769	26.456	0.523
607.500	387.432	80.006	19.993	103.305	19.769	26.456	0.549
609.000	388.181	80.004	19.994	103.292	19.764	26.816	0.510
610.500	388.981	80.005	19.994	103.293	19.762	26.998	0.542
612.000	389.724	80.005	19.995	103.299	19.764	26.862	0.493
613.500	390.479	80.005	19.996	103.303	19.757	27.313	0.481
615.000	391.233	80.005	19.995	103.306	19.755	27.424	0.504
616.500	392.017	80.003	19.994	103.297	19.748	27.911	0.523
618.000	392.786	80.004	19.994	103.297	19.747	27.988	0.505
619.500	393.554	80.004	19.995	103.298	19.747	28.011	0.520
621.000	394.346	80.005	19.995	103.301	19.742	28.354	0.525
622.500	395.110	80.006	19.994	103.307	19.736	28.772	0.501
624.000	395.871	80.006	19.995	103.318	19.734	28.909	0.493
625.500	396.632	80.005	19.994	103.317	19.733	28.966	0.502
627.000	397.371	80.006	19.994	103.315	19.722	29.716	0.490
628.500	398.125	80.005	19.993	103.316	19.723	29.633	0.520
630.000	398.836	80.008	19.995	103.321	19.718	29.995	0.483
631.500	399.604	80.006	19.995	103.321	19.712	30.424	0.507
633.000	400.379	80.006	19.994	103.319	19.708	30.681	0.534
634.500	401.123	80.006	19.994	103.321	19.703	31.037	0.498
636.000	401.854	80.006	19.995	103.323	19.697	31.436	0.481
637.500	402.584	80.006	19.993	103.320	19.693	31.684	0.482
639.000	403.352	80.005	19.994	103.319	19.688	32.045	0.519
640.500	404.107	80.005	19.994	103.321	19.684	32.323	0.503
642.000	404.800	80.005	19.995	103.323	19.679	32.700	0.470
643.500	405.570	80.004	19.995	103.323	19.676	32.906	0.513
645.000	406.294	80.004	19.994	103.322	19.664	33.732	0.477
646.500	407.057	80.005	19.996	103.324	19.662	33.853	0.491
648.000	407.785	80.004	19.995	103.326	19.659	34.023	0.480
649.500	408.503	80.005	19.995	103.325	19.656	34.257	0.480
651.000	409.262	80.005	19.993	103.325	19.650	34.658	0.496
652.500	410.009	80.006	19.995	103.327	19.648	34.839	0.507
654.000	410.762	80.005	19.994	103.325	19.645	35.000	0.514
655.500	411.443	80.007	19.995	103.332	19.641	35.302	0.467
657.000	412.193	80.006	19.995	103.331	19.640	35.336	0.502
658.500	412.922	80.006	19.994	103.330	19.632	35.893	0.484
660.000	413.634	80.006	19.994	103.328	19.633	35.876	0.468
661.500	414.376	80.006	19.993	103.327	19.631	35.995	0.502
663.000	415.088	80.006	19.994	103.326	19.627	36.245	0.484
664.500	415.852	80.004	19.994	103.332	19.632	35.938	0.514
666.000	416.579	80.003	19.994	103.333	19.629	36.149	0.502
667.500	417.337	80.005	19.995	103.330	19.625	36.370	0.490
669.000	418.066	80.005	19.994	103.332	19.629	36.115	0.482
670.500	418.812	80.005	19.994	103.335	19.627	36.243	0.485
672.000	419.532	80.004	19.994	103.336	19.630	36.041	0.499
673.500	420.279	80.004	19.994	103.336	19.630	36.045	0.477
675.000	421.027	80.005	19.994	103.341	19.635	35.733	0.498
676.500	421.773	80.006	19.995	103.334	19.638	35.472	0.499
678.000	422.490	80.007	19.996	103.323	19.639	35.437	0.499
679.500	423.256	80.008	19.996	103.321	19.645	34.988	0.530
681.000	423.929	80.007	19.996	103.320	19.650	34.637	0.465
682.500	424.676	80.008	19.996	103.319	19.654	34.407	0.513
684.000	425.396	80.006	19.996	103.319	19.660	33.965	0.480
685.500	426.165	80.007	19.994	103.322	19.665	33.663	0.509
687.000	426.874	80.007	19.996	103.323	19.671	33.198	0.480
688.500	427.601	80.006	19.995	103.321	19.683	32.404	0.485
690.000	428.376	80.006	19.994	103.325	19.690	31.945	0.525
691.500	429.132	80.005	19.995	103.326	19.699	31.331	0.495
693.000	429.929	80.006	19.994	103.323	19.705	30.905	0.507
694.500	430.692	80.005	19.994	103.323	19.713	30.365	0.495
696.000	431.420	80.004	19.994	103.323	19.723	29.617	0.487
697.500	432.175	80.005	19.994	103.323	19.733	28.979	0.504
699.000	433.020	80.005	19.995	103.322	19.738	28.621	0.571
700.500	433.829	80.006	19.995	103.321	19.749	27.847	0.516
702.000	434.640	80.006	19.995	103.319	19.757	27.287	0.559
703.500	435.457	80.006	19.994	103.314	19.764	26.808	0.530
705.000	436.275	80.006	19.994	103.314	19.773	26.179	0.531
706.500	437.106	80.005	19.994	103.305	19.780	25.723	0.544
708.000	437.900	80.006	19.994	103.302	19.788	25.186	0.515
709.500	438.715	80.005	19.995	103.292	19.798	24.518	0.553
711.000	439.509	80.006	19.995	103.291	19.802	24.229	0.515
712.500	440.341	80.005	19.995	103.295	19.812	23.528	0.548
714.000	441.169	80.004	19.995	103.289	19.817	23.185	0.565
715.500	441.955	80.005	19.994	103.286	19.826	22.574	0.535
717.000	442.809	80.006	19.994	103.286	19.831	22.210	0.562
718.500	443.665	80.005	19.994	103.287	19.837	21.825	0.562
720.000	444.450	80.005	19.994	103.286	19.844	21.333	0.502
721.500	445.238	80.004	19.995	103.286	19.850	20.899	0.528
723.000	446.053	80.005	19.995	103.286	19.856	20.498	0.534
724.500	446.866	80.004	19.994	103.285	19.865	19.901	0.527
726.000	447.681	80.004	19.993	103.286	19.870	19.533	0.551
727.500	448.495	80.004	19.994	103.286	19.877	19.084	0.533
729.000	449.312	80.004	19.994	103.279	19.883	18.675	0.536
730.500	450.140	80.004	19.993	103.280	19.889	18.222	0.540
732.000	450.979	80.005	19.993	103.276	19.898	17.619	0.592
733.500	451.780	80.006	19.994	103.269	19.903	17.265	0.527
735.000	452.607	80.006	19.995	103.269	19.909	16.824	0.555
736.500	453.456	80.005	19.995	103.260	19.917	16.335	0.553
738.000	454.227	80.006	19.994	103.261	19.922	15.940	0.519
739.500	455.089	80.006	19.994	103.259	19.927	15.608	0.570
741.000	455.973	80.005	19.994	103.248	19.930	15.407	0.567
742.500	456.743	80.005	19.994	103.247	19.938	14.882	0.537
744.000	457.582	80.005	19.994	103.243	19.947	14.252	0.561
745.500	458.362	80.004	19.994	103.243	19.955	13.677	0.515
747.000	459.228	80.005	19.995	103.242	19.960	13.324	0.566
748.500	460.056	80.005	19.993	103.243	19.967	12.890	0.550
750.000	460.831	80.004	19.994	103.242	19.969	12.711	0.521
751.500	461.688	80.005	19.994	103.243	19.975	12.290	0.568
753.000	462.480	80.005	19.994	103.242	19.981	11.891	0.542
754.500	463.288	80.007	19.995	103.242	19.989	11.334	0.545
756.000	464.093	80.007	19.994	103.236	19.992	11.167	0.525
757.500	464.940	80.007	19.994	103.230	19.997	10.810	0.558
759.000	465.770	80.007	19.993	103.226	20.002	10.459	0.548
760.500	466.612	80.007	19.995	103.231	20.007	10.137	0.556
762.000	467.427	80.009	19.995	103.226	20.010	9.933	0.531
763.500	468.197	80.007	19.995	103.222	20.017	9.466	0.522
765.000	469.031	80.006	19.995	103.212	20.016	9.490	0.546
766.500	469.839	80.005	19.996	103.209	20.022	9.078	0.559
768.000	470.682	80.004	19.995	103.209	20.027	8.768	0.554
769.500	471.456	80.005	19.996	103.206	20.029	8.581	0.501
771.000	472.263	80.005	19.996	103.204	20.031	8.468	0.520
772.500	473.085	80.005	19.995	103.201	20.035	8.220	0.555
774.000	473.948	80.005	19.994	103.203	20.038	7.974	0.566
775.500	474.739	80.005	19.996	103.203	20.037	8.079	0.527
777.000	475.535	80.005	19.995	103.204	20.039	7.890	0.516
778.500	476.344	80.004	19.995	103.205	20.044	7.610	0.552
780.000	477.109	80.004	19.995	103.205	20.046	7.414	0.520
781.500	477.909	80.005	19.994	103.205	20.047	7.348	0.524
783.000	478.731	80.004	19.994	103.206	20.051	7.073	0.530
784.500	479.534	80.005	19.994	103.205	20.057	6.713	0.558
786.000	480.334	80.004	19.995	103.205	20.055	6.856	0.525
787.500	481.138	80.004	19.995	103.202	20.057	6.692	0.528
789.000	481.949	80.004	19.995	103.203	20.060	6.463	0.537
790.500	482.745	80.005	19.994	103.200	20.058	6.633	0.531
792.000	483.521	80.006	19.993	103.204	20.060	6.458	0.525
793.500	484.302	80.004	19.995	103.205	20.060	6.473	0.536
795.000	485.099	80.004	19.994	103.195	20.060	6.474	0.536
796.500	485.847	80.005	19.994	103.184	20.065	6.160	0.499
798.000	486.675	80.002	19.994	103.184	20.066	6.061	0.552
799.500	487.459	80.003	19.994	103.182	20.068	5.935	0.517
801.000	488.213	80.003	19.994	103.182	20.070	5.819	0.512
802.500	488.997	80.004	19.994	103.186	20.067	5.967	0.523
804.000	489.810	80.004	19.995	103.198	20.069	5.894	0.529
805.500	490.612	80.005	19.995	103.192	20.073	5.605	0.518
807.000	491.341	80.005	19.994	103.188	20.072	5.662	0.495
808.500	492.141	80.006	19.994	103.191	20.075	5.429	0.532
810.000	492.937	80.005	19.994	103.184	20.075	5.422	0.512
811.500	493.692	80.007	19.994	103.187	20.078	5.213	0.503
813.000	494.526	80.007	19.994	103.189	20.076	5.383	0.541
814.500	495.299	80.006	19.993	103.179	20.079	5.207	0.512
816.000	496.112	80.007	19.994	103.179	20.078	5.253	0.553
817.500	496.845	80.007	19.994	103.177	20.079	5.203	0.494
819.000	497.651	80.006	19.993	103.172	20.080	5.099	0.544
820.500	498.440	80.007	19.994	103.178	20.081	5.068	0.539
822.000	499.264	80.007	19.994	103.193	20.081	5.031	0.538
823.500	500.030	80.007	19.995	103.180	20.081	5.038	0.512
825.000	500.808	80.007	19.994	103.173	20.082	4.979	0.540
826.500	501.588	80.006	19.996	103.179	20.081	5.038	0.505
828.000	502.378	80.006	19.995	103.171	20.084	4.805	0.548
829.500	503.178	80.006	19.995	103.166	20.083	4.916	0.529
831.000	503.953	80.007	19.994	103.169	20.082	4.964	0.498
832.500	504.705	80.006	19.995	103.171	20.090	4.440	0.503
834.000	505.500	80.007	19.994	103.176	20.086	4.664	0.537
835.500	506.297	80.006	19.995	103.176	20.086	4.720	0.512
837.000	507.072	80.006	19.995	103.175	20.091	4.370	0.521
838.500	507.838	80.007	19.995	103.167	20.087	4.603	0.527
840.000	508.658	80.007	19.994	103.168	20.088	4.532	0.530
841.500	509.477	80.005	19.995	103.168	20.088	4.529	0.555
843.000	510.188	80.006	19.994	103.171	20.087	4.654	0.483
844.500	510.988	80.008	19.994	103.173	20.091	4.335	0.546
846.000	511.772	80.007	19.995	103.172	20.091	4.379	0.537
847.500	512.497	80.005	19.993	103.177	20.094	4.144	0.495
849.000	513.303	80.006	19.994	103.174	20.092	4.297	0.528
850.500	514.119	80.005	19.994	103.166	20.093	4.181	0.557
852.000	514.896	80.004	19.994	103.163	20.095	4.097	0.536
853.500	515.703	80.006	19.994	103.178	20.090	4.442	0.526
855.000	516.440	80.005	19.995	103.186	20.094	4.175	0.493
856.500	517.221	80.004	19.995	103.166	20.092	4.257	0.528
858.000	518.013	80.005	19.994	103.168	20.094	4.112	0.531
859.500	518.784	80.004	19.996	103.168	20.097	3.909	0.501
861.000	519.546	80.004	19.995	103.171	20.093	4.221	0.505
862.500	520.298	80.004	19.995	103.170	20.095	4.088	0.515
864.000	521.107	80.004	19.994	103.169	20.092	4.286	0.534
865.500	521.851	80.004	19.996	103.169	20.094	4.124	0.493
867.000	522.613	80.005	19.995	103.167	20.092	4.249	0.506
868.500	523.378	80.007	19.994	103.166	20.092	4.257	0.513
870.000	524.100	80.006	19.995	103.170	20.094	4.153	0.511
871.500	524.915	80.006	19.995	103.170	20.093	4.199	0.535
873.000	525.681	80.005	19.994	103.165	20.096	4.029	0.525
874.500	526.441	80.005	19.994	103.171	20.098	3.897	0.521
876.000	527.185	80.006	19.995	103.175	20.096	3.979	0.508
877.500	527.922	80.005	19.994	103.167	20.098	3.836	0.479
879.000	528.681	80.005	19.995	103.165	20.096	4.012	0.531
880.500	529.474	80.004	19.995	103.166	20.095	4.070	0.519
882.000	530.220	80.006	19.994	103.167	20.101	3.694	0.520
883.500	530.977	80.005	19.995	103.166	20.098	3.846	0.514
885.000	531.698	80.005	19.995	103.167	20.097	3.949	0.484
886.500	532.489	80.005	19.995	103.168	20.098	3.882	0.535
888.000	533.241	80.006	19.995	103.166	20.098	3.849	0.509
889.500	534.011	80.005	19.995	103.166	20.100	3.760	0.509
891.000	534.801	80.006	19.994	103.167	20.099	3.773	0.542
892.500	535.563	80.006	19.994	103.166	20.100	3.758	0.502
894.000	536.326	80.007	19.994	103.167	20.099	3.829	0.522
895.500	537.095	80.007	19.994	103.166	20.098	3.894	0.497
897.000	537.896	80.007	19.994	103.161	20.098	3.864	0.509
898.500	538.614	80.007	19.994	103.162	20.097	3.927	0.495
900.000	539.362	80.006	19.995	103.164	20.099	3.812	0.508
901.500	540.110	80.007	19.995	103.165	20.099	3.820	0.507
903.000	540.893	80.006	19.994	103.166	20.100	3.725	0.518
904.500	541.672	80.007	19.994	103.163	20.099	3.805	0.515
906.000	542.424	80.006	19.994	103.167	20.101	3.694	0.495
907.500	543.179	80.007	19.993	103.168	20.097	3.970	0.485
909.000	543.935	80.006	19.994	103.166	20.100	3.733	0.507
910.500	544.687	80.005	19.994	103.166	20.101	3.660	0.506
912.000	545.445	80.006	19.993	103.168	20.098	3.840	0.530
913.500	546.179	80.005	19.994	103.170	20.101	3.647	0.490
915.000	546.991	80.007	19.995	103.168	20.101	3.672	0.531
916.500	547.741	80.006	19.994	103.167	20.101	3.688	0.515
918.000	548.520	80.007	19.993	103.168	20.101	3.651	0.507
919.500	549.268	80.006	19.994	103.168	20.100	3.703	0.495
921.000	550.033	80.007	19.994	103.167	20.100	3.735	0.497
922.500	550.803	80.006	19.993	103.164	20.097	3.925	0.514
924.000	551.552	80.006	19.994	103.167	20.098	3.892	0.483
925.500	552.333	80.005	19.995	103.168	20.101	3.660	0.494
927.000	553.074	80.005	19.994	103.167	20.102	3.573	0.504
928.500	553.870	80.003	19.995	103.167	20.098	3.849	0.542
930.000	554.649	80.004	19.995	103.168	20.099	3.773	0.520
931.500	555.401	80.005	19.995	103.167	20.100	3.755	0.516
933.000	556.150	80.004	19.994	103.167	20.098	3.890	0.504
934.500	556.959	80.004	19.994	103.165	20.098	3.894	0.538
936.000	557.670	80.005	19.995	103.163	20.096	4.031	0.474
937.500	558.487	80.005	19.995	103.159	20.099	3.794	0.547
939.000	559.215	80.006	19.994	103.160	20.097	3.958	0.509
940.500	559.965	80.006	19.994	103.165	20.098	3.897	0.477
942.000	560.738	80.004	19.994	103.162	20.097	3.921	0.478
943.500	561.542	80.005	19.995	103.164	20.094	4.142	0.525
945.000	562.247	80.005	19.995	103.165	20.097	3.951	0.510
946.500	563.054	80.005	19.996	103.163	20.097	3.931	0.518
948.000	563.738	80.005	19.996	103.164	20.102	3.579	0.438
949.500	564.512	80.006	19.995	103.165	20.099	3.820	0.532
951.000	565.239	80.005	19.996	103.164	20.094	4.127	0.475
952.500	566.100	80.005	19.995	103.164	20.098	3.894	0.579
954.000	566.784	80.005	19.995	103.163	20.099	3.810	0.438
955.500	567.487	80.006	19.995	103.163	20.098	3.857	0.496
957.000	568.357	80.004	19.996	103.162	20.099	3.834	0.577
958.500	569.069	80.005	19.995	103.162	20.100	3.764	0.496
960.000	569.810	80.003	19.994	103.163	20.091	4.329	0.533
961.500	570.562	80.005	19.993	103.166	20.087	4.649	0.519
963.000	571.359	80.005	19.995	103.165	20.088	4.560	0.530
964.500	572.142	80.004	19.995	103.166	20.088	4.566	0.547
966.000	572.911	80.004	19.994	103.166	20.093	4.192	0.530
967.500	573.630	80.005	19.995	103.167	20.100	3.720	0.491
969.000	574.448	80.006	19.995	103.168	20.102	3.614	0.456
970.500	575.271	80.007	19.995	103.167	20.100	3.718	0.454
972.000	575.967	80.005	19.994	103.168	20.100	3.723	0.671
973.500	576.785	80.006	19.994	103.167	20.100	3.755	0.542
975.000	577.573	80.005	19.995	103.167	20.103	3.494	0.537
976.500	577.896	80.005	19.995	103.164	20.101	3.686	0.642
978.000	579.512	80.007	19.994	103.163	20.099	3.777	1.108
979.500	579.798	80.006	19.994	103.165	20.098	3.881	0.180
981.000	580.786	80.007	19.995	103.167	20.098	3.838	0.304
982.500	581.235	80.004	19.995	103.167	20.101	3.662	0.602
984.000	582.139	80.005	19.994	103.167	20.098	3.899	0.592
985.500	582.719	80.006	19.994	103.168	20.096	4.020	0.512
987.000	583.630	80.006	19.994	103.167	20.099	3.786	0.571
988.500	584.481	80.005	19.994	103.166	20.102	3.616	0.493
990.000	585.153	80.006	19.994	103.168	20.100	3.738	0.502
991.500	586.017	80.005	19.994	103.168	20.099	3.781	0.514
993.000	586.683	80.007	19.994	103.168	20.101	3.631	0.503
994.500	587.422	80.007	19.994	103.167	20.096	3.990	0.544
996.000	588.190	80.007	19.995	103.166	20.099	3.814	0.573
997.500	589.034	80.008	19.993	103.165	20.094	4.156	0.521
999.000	589.878	80.008	19.994	103.162	20.097	3.962	0.549
1000.500	590.659	80.007	19.994	103.161	20.095	4.062	0.568
1002.000	591.444	80.008	19.994	103.162	20.097	3.938	0.554
1003.500	592.255	80.008	19.994	103.163	20.100	3.756	0.504
1005.000	593.057	80.008	19.994	103.165	20.098	3.895	0.489
1006.500	593.874	80.007	19.995	103.162	20.096	4.032	0.508
1008.000	594.701	80.005	19.995	103.162	20.093	4.197	0.517
1009.500	595.466	80.006	19.995	103.162	20.092	4.271	0.538
1011.000	596.269	80.006	19.995	103.160	20.092	4.303	0.545
1012.500	597.067	80.006	19.995	103.161	20.093	4.242	0.523
1014.000	597.920	80.006	19.994	103.155	20.093	4.199	0.566
1015.501	598.656	80.004	19.995	103.158	20.091	4.373	0.530
1017.000	599.541	80.005	19.996	103.165	20.089	4.458	0.564
1018.500	600.328	80.007	19.994	103.165	20.090	4.419	0.519
1020.000	601.172	80.005	19.996	103.164	20.087	4.647	0.549
1021.500	601.942	80.006	19.995	103.164	20.091	4.382	0.492
1023.000	602.744	80.005	19.995	103.164	20.087	4.603	0.545
1024.499	603.510	80.006	19.996	103.164	20.088	4.564	0.512
1025.999	604.342	80.005	19.995	103.164	20.091	4.318	0.545
1027.499	605.084	80.005	19.995	103.165	20.087	4.608	0.525
1028.999	605.929	80.005	19.995	103.165	20.090	4.449	0.520
1030.499	606.669	80.007	19.995	103.167	20.090	4.434	0.517
1032.000	607.492	80.004	19.994	103.166	20.092	4.268	0.545
1033.499	608.236	80.005	19.996	103.166	20.093	4.229	0.501
1034.999	609.010	80.005	19.993	103.167	20.092	4.297	0.506
1036.499	609.816	80.003	19.996	103.168	20.093	4.219	0.536
1037.999	610.608	80.005	19.994	103.168	20.091	4.329	0.533
1039.500	611.387	80.003	19.995	103.167	20.092	4.305	0.537
1040.999	612.178	80.003	19.996	103.167	20.090	4.416	0.499
1042.499	612.962	80.004	19.996	103.165	20.095	4.090	0.533
1043.999	613.781	80.005	19.995	103.164	20.091	4.381	0.527
1045.499	614.520	80.004	19.996	103.163	20.093	4.186	0.498
1046.999	615.325	80.005	19.996	103.159	20.093	4.220	0.514
1048.499	616.101	80.005	19.997	103.162	20.091	4.360	0.532
1049.999	616.882	80.005	19.995	103.165	20.090	4.388	0.526
1051.499	617.630	80.005	19.995	103.167	20.092	4.251	0.498
1052.999	618.393	80.006	19.994	103.165	20.093	4.203	0.539
1054.500	619.175	80.006	19.995	103.168	20.097	3.947	0.518
1055.999	619.994	80.006	19.994	103.170	20.092	4.251	0.538
1057.499	620.759	80.006	19.994	103.170	20.095	4.101	0.508
1058.999	621.492	80.006	19.994	103.168	20.096	4.005	0.490
1060.499	622.232	80.007	19.994	103.164	20.096	4.025	0.479
1062.000	623.022	80.007	19.994	103.162	20.098	3.873	0.532
1063.499	623.749	80.005	19.994	103.163	20.095	4.055	0.506
1064.999	624.536	80.006	19.994	103.161	20.094	4.151	0.500
1066.500	625.318	80.007	19.994	103.162	20.097	3.967	0.523
1067.999	626.030	80.006	19.994	103.163	20.094	4.147	0.479
1069.499	626.800	80.006	19.993	103.163	20.097	3.965	0.525
1070.999	627.580	80.006	19.994	103.161	20.096	3.980	0.481
1072.501	628.333	80.006	19.993	103.159	20.096	3.976	0.495
1073.999	629.134	80.005	19.994	103.161	20.097	3.921	0.534
1075.499	629.848	80.008	19.994	103.158	20.095	4.054	0.490
1076.999	630.597	80.007	19.995	103.157	20.098	3.871	0.496
1078.499	631.400	80.008	19.993	103.159	20.102	3.623	0.519
1079.999	632.165	80.008	19.994	103.157	20.099	3.767	0.495
1081.499	632.922	80.007	19.995	103.148	20.100	3.756	0.493
1082.999	633.709	80.007	19.993	103.148	20.099	3.795	0.530
1084.499	634.456	80.007	19.993	103.142	20.101	3.654	0.498
1085.999	635.214	80.006	19.994	103.145	20.104	3.484	0.502
1087.499	635.986	80.006	19.995	103.152	20.101	3.647	0.503
1088.999	636.740	80.005	19.994	103.147	20.106	3.310	0.499
1090.500	637.531	80.006	19.994	103.153	20.104	3.491	0.512
1091.999	638.269	80.007	19.993	103.151	20.104	3.457	0.512
1093.499	639.063	80.006	19.996	103.147	20.104	3.476	0.538
1094.999	639.817	80.006	19.995	103.141	20.103	3.513	0.521
1096.499	640.591	80.006	19.993	103.139	20.106	3.287	0.509
1097.999	641.360	80.004	19.994	103.151	20.109	3.134	0.515
1099.499	642.083	80.006	19.994	103.159	20.109	3.121	0.484
1101.000	642.851	80.005	19.994	103.152	20.107	3.261	0.519
1102.499	643.610	80.004	19.996	103.133	20.105	3.404	0.514
1104.000	644.359	80.004	19.995	103.139	20.109	3.143	0.490
1105.499	645.117	80.006	19.995	103.151	20.105	3.363	0.528
1106.999	645.888	80.005	19.995	103.138	20.109	3.139	0.492
1108.500	646.650	80.005	19.995	103.137	20.107	3.273	0.530
1110.000	647.363	80.005	19.995	103.139	20.109	3.145	0.497
1111.500	648.132	80.004	19.995	103.137	20.108	3.191	0.509
1112.999	648.908	80.005	19.995	103.141	20.108	3.215	0.511
1114.499	649.643	80.004	19.996	103.149	20.107	3.286	0.490
1116.000	650.416	80.003	19.994	103.145	20.105	3.399	0.504
1117.501	651.193	80.003	19.995	103.144	20.105	3.382	0.532
1119.000	651.958	80.004	19.994	103.144	20.109	3.114	0.504
1120.501	652.682	80.004	19.994	103.146	20.109	3.130	0.490
1122.000	653.460	80.003	19.995	103.142	20.124	2.084	0.517
1123.499	654.242	80.004	19.995	103.138	20.111	2.991	0.499
1124.999	655.007	80.004	19.996	103.141	20.110	3.058	0.515
1126.500	655.807	80.003	19.995	103.155	20.108	3.193	0.532
1127.999	656.572	80.006	19.994	103.150	20.107	3.225	0.516
1129.499	657.405	80.006	19.995	103.151	20.109	3.138	0.490
1130.999	657.609	80.003	19.996	103.147	20.110	3.034	0.405
1132.499	658.838	80.005	19.996	103.145	20.111	2.976	0.831
1134.000	659.552	80.006	19.995	103.142	20.111	2.984	0.299
1135.499	660.420	80.007	19.995	103.137	20.109	3.106	0.703
1137.000	661.121	80.005	19.997	103.129	20.108	3.202	0.301
1138.499	661.904	80.006	19.996	103.137	20.110	3.056	0.583
1139.999	662.675	80.005	19.995	103.146	20.108	3.210	0.497
1141.501	663.445	80.006	19.994	103.138	20.107	3.254	0.516
1142.999	664.171	80.006	19.994	103.130	20.111	3.004	0.511
1144.500	664.889	80.006	19.995	103.130	20.111	2.956	0.470
1146.000	665.710	80.005	19.994	103.131	20.108	3.159	0.518
1147.499	666.419	80.007	19.994	103.130	20.111	2.984	0.455
1148.999	667.162	80.007	19.995	103.130	20.107	3.248	0.487
1150.500	667.925	80.007	19.995	103.132	20.108	3.215	0.510
1152.000	668.639	80.006	19.994	103.132	20.108	3.159	0.489
1153.499	669.396	80.007	19.995	103.132	20.111	3.004	0.491
1154.999	670.136	80.008	19.996	103.131	20.105	3.367	0.489
1156.501	670.939	80.007	19.994	103.129	20.107	3.230	0.542
1157.999	671.676	80.008	19.994	103.129	20.112	2.906	0.486
1159.499	672.380	80.009	19.994	103.130	20.109	3.124	0.482
1160.999	673.162	80.008	19.992	103.132	20.108	3.165	0.510
1162.499	673.899	80.006	19.995	103.130	20.110	3.063	0.510
1163.999	674.635	80.005	19.994	103.137	20.109	3.132	0.477
1165.499	675.451	80.006	19.995	103.140	20.111	2.950	0.508
1166.999	676.220	80.005	19.995	103.136	20.107	3.250	0.529
1168.500	676.974	80.006	19.994	103.138	20.107	3.249	0.501
1170.000	677.738	80.005	19.994	103.134	20.108	3.184	0.525
1171.500	677.997	80.004	19.993	103.131	20.109	3.121	0.181
1172.999	679.171	80.005	19.995	103.133	20.109	3.095	0.691
1174.500	680.005	80.005	19.995	103.135	20.108	3.177	0.513
1175.999	680.716	80.004	19.994	103.137	20.107	3.250	0.489
1177.500	681.475	80.005	19.995	103.138	20.107	3.273	0.501
1178.999	682.215	80.004	19.995	103.139	20.108	3.197	0.491
1180.499	682.995	80.003	19.995	103.139	20.107	3.262	0.512
1182.000	683.694	80.005	19.994	103.143	20.110	3.015	0.469
1183.500	684.485	80.005	19.994	103.147	20.112	2.893	0.527
1184.999	685.257	80.005	19.993	103.151	20.107	3.226	0.519
1186.499	686.001	80.005	19.994	103.147	20.110	3.048	0.500
1188.000	686.746	80.004	19.994	103.145	20.110	3.074	0.490
1189.501	687.402	80.005	19.994	103.144	20.108	3.171	0.461
1190.999	688.246	80.004	19.995	103.144	20.107	3.235	0.559
1192.499	688.988	80.004	19.994	103.141	20.104	3.424	0.475
1194.001	689.755	80.005	19.995	103.140	20.109	3.132	0.516
1195.500	690.521	80.003	19.995	103.141	20.107	3.245	0.497
1196.999	691.289	80.005	19.995	103.135	20.107	3.254	0.498
1198.499	692.046	80.004	19.995	103.137	20.106	3.324	0.520
1200.000	692.779	80.004	19.995	103.133	20.107	3.267	0.487
1201.500	693.577	80.005	19.996	103.129	20.102	3.626	0.532
1203.000	694.319	80.005	19.996	103.130	20.105	3.363	0.483
1204.499	695.126	80.005	19.996	103.131	20.109	3.143	0.532
1205.999	695.846	80.005	19.996	103.142	20.108	3.210	0.495
1207.499	696.646	80.005	19.996	103.138	20.106	3.323	0.545
1208.999	697.448	80.006	19.996	103.131	20.109	3.121	0.537
1210.499	698.234	80.006	19.995	103.133	20.104	3.457	0.498
1212.001	698.987	80.005	19.993	103.134	20.107	3.224	0.514
1213.500	699.748	80.005	19.996	103.135	20.110	3.074	0.506
1214.999	700.557	80.005	19.996	103.134	20.108	3.169	0.541
1216.500	701.351	80.007	19.997	103.133	20.110	3.045	0.541
1218.000	702.150	80.006	19.995	103.144	20.107	3.263	0.527
1219.499	702.894	80.005	19.996	103.135	20.106	3.322	0.525
1220.999	703.708	80.004	19.997	103.132	20.111	2.984	0.530
1222.499	704.463	80.006	19.996	103.129	20.105	3.363	0.510
1223.999	705.228	80.005	19.995	103.127	20.108	3.174	0.504
1225.500	706.048	80.004	19.995	103.127	20.107	3.267	0.552
1226.999	706.798	80.004	19.996	103.129	20.108	3.208	0.514
1228.499	707.580	80.005	19.995	103.134	20.104	3.448	0.524
1229.999	708.378	80.005	19.996	103.135	20.108	3.191	0.528
1231.499	709.137	80.006	19.995	103.130	20.108	3.202	0.504
1232.999	709.897	80.006	19.995	103.127	20.109	3.130	0.510
1234.499	710.672	80.007	19.995	103.128	20.105	3.372	0.517
1235.999	711.464	80.008	19.995	103.130	20.109	3.147	0.514
1237.500	712.187	80.007	19.995	103.132	20.108	3.183	0.489
1238.999	712.987	80.008	19.994	103.132	20.105	3.393	0.540
1240.499	713.694	80.006	19.994	103.130	20.106	3.307	0.483
1242.000	714.512	80.006	19.993	103.130	20.110	3.032	0.556
1243.499	715.270	80.007	19.995	103.130	20.104	3.452	0.515
1245.000	716.058	80.006	19.993	103.133	20.104	3.454	0.517
1246.500	716.807	80.006	19.994	103.136	20.106	3.354	0.489
1247.999	717.573	80.005	19.994	103.131	20.109	3.137	0.538
1249.500	718.330	80.005	19.994	103.128	20.106	3.335	0.488
1250.999	719.113	80.005	19.994	103.128	20.105	3.407	0.505
1252.499	719.865	80.005	19.995	103.129	20.108	3.170	0.495
1253.999	720.610	80.004	19.996	103.125	20.104	3.476	0.500
1255.499	721.357	80.004	19.995	103.126	20.108	3.156	0.499
1256.999	722.150	80.003	19.996	103.128	20.108	3.213	0.516
1258.499	722.877	80.004	19.995	103.130	20.106	3.291	0.481
1260.000	723.643	80.004	19.996	103.126	20.107	3.224	0.533
1261.501	724.422	80.006	19.994	103.126	20.106	3.304	0.515
1262.999	725.167	80.004	19.995	103.126	20.107	3.219	0.502
1264.499	725.948	80.006	19.995	103.130	20.105	3.376	0.523
1266.000	726.659	80.006	19.995	103.127	20.107	3.263	0.474
1267.499	727.456	80.005	19.995	103.127	20.104	3.454	0.502
1268.999	728.236	80.005	19.995	103.127	20.104	3.485	0.517
1270.499	728.978	80.006	19.994	103.128	20.102	3.565	0.452
1272.000	729.708	80.005	19.994	103.129	20.103	3.500	0.488
1273.501	730.499	80.006	19.996	103.128	20.104	3.450	0.535
1274.999	731.195	80.005	19.996	103.127	20.103	3.554	0.500
1276.499	731.979	80.005	19.994	103.126	20.104	3.480	0.533
1278.000	732.736	80.005	19.995	103.128	20.102	3.561	0.485
1279.501	733.498	80.004	19.996	103.128	20.104	3.424	0.492
1280.999	734.262	80.004	19.994	103.129	20.103	3.559	0.497
1282.499	735.024	80.004	19.994	103.129	20.104	3.439	0.505
1283.999	735.719	80.004	19.995	103.128	20.101	3.689	0.471
1285.499	736.508	80.004	19.995	103.128	20.104	3.465	0.515
1286.999	737.286	80.005	19.996	103.129	20.105	3.396	0.524
1288.499	738.005	80.006	19.995	103.130	20.105	3.418	0.488
1289.999	738.766	80.006	19.997	103.130	20.107	3.252	0.524
1291.499	739.538	80.005	19.995	103.130	20.103	3.518	0.519
1293.000	740.251	80.006	19.996	103.130	20.103	3.537	0.489
1294.499	741.041	80.006	19.996	103.129	20.105	3.383	0.521
1295.999	741.809	80.007	19.994	103.128	20.103	3.498	0.522
1297.499	742.530	80.006	19.995	103.128	20.102	3.581	0.486
1298.999	743.309	80.006	19.996	103.128	20.105	3.374	0.527
1299.499	743.526	80.006	19.995	103.128	20.106	3.354	0.503