File: 01_Data/Bamboo_Rug_Fabric/MCC/Bamboo_Rug_Fabric_MCC_30K_min_211129_R2.txt
Sample ID:	C:\MCC\MCC Cal\Test\Bamboo_RugB_MCC_30K_min_211129_R2.txt
Sample Weight (mg):	4.39
Heating Rate (C/s):	0.5
Combustor Temp (C):	900
N2 Flow Rate (cc/min):	80
O2 Flow Rate (cc/min):	20
Calibration File:	C:\MCC\MCC Cal\Coeff1 JN10440_30_210304.txt.txt
T Correction Coefficients:	0	1.024463	0
Time Shift (s):	14
*
Time (s)	Temperature (C)	N2 flow rate (cc/min)	O2 flow rate (cc/min)	Flow Rate (cc/min)	Oxygen (%)	HRR (W/g)	Heating rate (C/s)
0.000	108.509	80.005	19.995	103.133	20.063	-0.222	0.000
2.000	108.491	80.006	19.994	103.119	20.061	-0.060	-0.029
4.000	108.471	80.005	19.995	103.127	20.066	-0.435	-0.026
6.000	108.473	80.005	19.995	103.115	20.067	-0.510	-0.015
8.000	108.465	79.993	19.997	103.110	20.063	-0.254	0.001
10.000	108.525	80.004	19.995	103.109	20.061	-0.111	0.016
12.000	108.530	80.008	19.995	103.114	20.064	-0.264	0.009
14.000	108.511	80.008	19.994	103.117	20.066	-0.413	-0.015
16.000	108.527	80.011	19.995	103.143	20.059	0.040	0.010
18.000	108.530	80.005	19.996	103.179	20.058	0.121	0.004
20.000	108.599	80.006	19.995	103.180	20.055	0.371	0.027
22.000	108.655	80.006	19.994	103.185	20.048	0.888	0.031
24.000	108.685	80.006	19.995	103.197	20.046	0.989	0.012
26.000	108.780	80.006	19.993	103.214	20.042	1.299	0.041
28.000	108.861	80.007	19.995	103.243	20.038	1.622	0.043
30.000	108.994	80.007	19.996	103.266	20.036	1.741	0.047
32.000	109.174	80.005	19.996	103.293	20.035	1.798	0.083
34.000	109.363	80.007	19.995	103.287	20.032	2.026	0.099
36.000	109.538	80.008	19.996	103.290	20.033	1.957	0.104
38.000	109.779	80.009	19.995	103.282	20.028	2.381	0.103
40.001	110.041	80.006	19.995	103.298	20.028	2.310	0.149
42.000	110.356	80.007	19.993	103.316	20.027	2.417	0.128
44.001	110.696	80.009	19.993	103.289	20.029	2.262	0.226
46.000	111.002	80.006	19.994	103.287	20.030	2.189	0.176
48.000	111.361	80.007	19.994	103.289	20.026	2.480	0.168
50.000	111.730	80.006	19.994	103.294	20.028	2.320	0.169
52.000	112.107	80.005	19.994	103.292	20.032	2.048	0.174
54.000	112.520	80.007	19.994	103.297	20.028	2.314	0.198
56.000	112.943	80.006	19.994	103.296	20.026	2.476	0.201
58.000	113.385	80.005	19.994	103.313	20.031	2.110	0.198
60.000	113.842	80.005	19.995	103.304	20.027	2.420	0.235
62.000	114.325	80.007	19.995	103.301	20.029	2.248	0.211
64.000	114.821	80.007	19.994	103.300	20.027	2.444	0.246
66.000	115.306	80.007	19.995	103.297	20.026	2.460	0.227
68.000	115.789	80.004	19.995	103.298	20.027	2.446	0.253
70.000	116.330	80.007	19.994	103.313	20.023	2.727	0.262
72.001	116.855	80.008	19.995	103.328	20.023	2.737	0.261
74.000	117.416	80.008	19.994	103.323	20.022	2.753	0.275
76.000	117.966	80.005	19.995	103.331	20.020	2.937	0.271
78.000	118.564	80.005	19.994	103.343	20.021	2.840	0.284
80.001	119.113	80.005	19.994	103.341	20.016	3.264	0.282
82.000	119.751	80.006	19.993	103.341	20.021	2.836	0.281
84.000	120.356	80.004	19.995	103.338	20.020	2.957	0.336
86.000	120.972	80.004	19.994	103.339	20.019	2.980	0.308
88.000	121.643	80.006	19.996	103.346	20.020	2.909	0.306
90.000	122.322	80.005	19.994	103.339	20.014	3.347	0.327
92.000	122.988	80.007	19.994	103.333	20.017	3.175	0.351
94.000	123.670	80.007	19.995	103.332	20.017	3.157	0.351
96.000	124.366	80.007	19.995	103.343	20.016	3.264	0.346
98.000	125.085	80.007	19.994	103.357	20.015	3.270	0.336
100.000	125.809	80.007	19.995	103.357	20.019	3.013	0.359
102.001	126.583	80.008	19.995	103.338	20.019	2.987	0.339
104.000	127.272	80.006	19.995	103.331	20.018	3.082	0.322
106.000	127.994	80.006	19.995	103.336	20.017	3.155	0.343
108.000	128.747	80.006	19.996	103.336	20.017	3.122	0.375
110.000	129.543	80.007	19.994	103.332	20.022	2.800	0.396
112.000	130.282	80.007	19.993	103.332	20.017	3.176	0.362
114.000	131.064	80.007	19.994	103.335	20.013	3.471	0.406
116.000	131.838	80.006	19.994	103.340	20.017	3.157	0.409
118.000	132.655	80.008	19.994	103.337	20.018	3.056	0.374
120.001	133.430	80.008	19.994	103.345	20.018	3.115	0.402
122.001	134.249	80.007	19.994	103.365	20.017	3.170	0.378
124.001	135.031	80.007	19.995	103.370	20.015	3.297	0.366
126.000	135.835	80.007	19.996	103.361	20.016	3.228	0.405
128.000	136.692	80.005	19.994	103.341	20.012	3.530	0.432
130.000	137.494	80.005	19.995	103.347	20.013	3.423	0.416
132.000	138.358	80.005	19.996	103.361	20.020	2.933	0.451
134.000	139.144	80.006	19.996	103.351	20.020	2.911	0.392
136.000	140.070	80.006	19.995	103.361	20.017	3.133	0.433
138.000	140.930	80.003	19.994	103.355	20.015	3.328	0.449
140.000	141.788	80.005	19.994	103.312	20.018	3.091	0.439
142.000	142.668	80.003	19.994	103.388	20.016	3.261	0.435
144.000	143.559	80.006	19.993	103.385	20.017	3.176	0.436
146.000	144.520	80.005	19.994	103.365	20.018	3.081	0.457
148.000	145.431	80.006	19.994	103.364	20.014	3.386	0.479
150.000	146.357	80.008	19.993	103.376	20.015	3.297	0.482
152.000	147.247	80.006	19.994	103.369	20.015	3.319	0.450
154.000	148.144	80.006	19.995	103.370	20.013	3.443	0.490
156.000	149.080	80.005	19.994	103.368	20.013	3.432	0.444
158.000	150.036	80.006	19.994	103.370	20.009	3.762	0.468
160.000	150.943	80.006	19.996	103.365	20.011	3.626	0.423
162.000	151.890	80.007	19.996	103.369	20.010	3.654	0.491
164.000	152.839	80.005	19.994	103.370	20.007	3.891	0.497
166.000	153.760	80.005	19.993	103.365	20.011	3.588	0.443
168.000	154.683	80.006	19.994	103.374	20.013	3.454	0.448
170.000	155.633	80.007	19.994	103.394	20.014	3.410	0.480
172.000	156.601	80.006	19.995	103.358	20.014	3.353	0.464
174.000	157.579	80.008	19.994	103.365	20.008	3.785	0.496
176.000	158.565	80.007	19.994	103.370	20.009	3.706	0.512
178.000	159.542	80.006	19.994	103.359	20.012	3.514	0.470
180.000	160.487	80.008	19.994	103.343	20.007	3.868	0.489
182.000	161.505	80.006	19.994	103.365	20.011	3.598	0.498
184.000	162.501	80.009	19.995	103.342	20.009	3.739	0.512
186.000	163.481	80.008	19.995	103.339	20.008	3.823	0.483
188.000	164.496	80.007	19.994	103.343	20.007	3.912	0.504
190.000	165.542	80.008	19.995	103.353	20.011	3.626	0.527
192.000	166.493	80.007	19.995	103.356	20.008	3.783	0.492
194.000	167.474	80.005	19.995	103.365	20.007	3.854	0.492
196.000	168.510	80.008	19.995	103.351	20.005	4.072	0.493
198.000	169.526	80.009	19.994	103.337	20.006	3.958	0.522
200.000	170.501	80.009	19.995	103.359	20.004	4.077	0.507
202.000	171.497	80.008	19.994	103.355	20.009	3.746	0.528
204.000	172.500	80.008	19.994	103.362	20.004	4.113	0.516
206.000	173.516	80.008	19.995	103.346	20.008	3.805	0.494
208.000	174.558	80.008	19.993	103.343	20.013	3.445	0.524
210.000	175.540	80.007	19.994	103.336	20.007	3.920	0.473
212.000	176.541	80.005	19.994	103.335	20.006	3.958	0.502
214.000	177.532	80.006	19.994	103.333	20.007	3.865	0.498
216.000	178.591	80.005	19.995	103.329	20.004	4.081	0.492
218.000	179.572	80.005	19.995	103.334	20.004	4.091	0.522
220.000	180.590	80.005	19.996	103.332	20.008	3.845	0.508
222.000	181.650	80.008	19.997	103.334	20.005	4.061	0.529
224.000	182.620	80.005	19.995	103.338	20.003	4.146	0.486
226.000	183.630	80.005	19.996	103.332	20.003	4.200	0.522
228.000	184.639	80.007	19.996	103.332	20.000	4.426	0.496
230.000	185.642	80.007	19.995	103.332	20.002	4.289	0.518
232.000	186.659	80.007	19.994	103.331	20.006	3.954	0.535
234.000	187.689	80.008	19.995	103.334	20.002	4.228	0.482
236.000	188.645	80.007	19.994	103.336	20.001	4.333	0.472
238.000	189.658	80.007	19.994	103.332	19.999	4.511	0.525
240.000	190.638	80.007	19.994	103.325	20.000	4.422	0.500
242.000	191.651	80.005	19.994	103.325	20.001	4.307	0.517
244.000	192.672	80.006	19.995	103.331	20.000	4.381	0.502
246.000	193.646	80.004	19.994	103.331	20.004	4.101	0.479
248.000	194.629	80.006	19.995	103.332	20.001	4.333	0.477
250.000	195.621	80.006	19.994	103.332	20.004	4.143	0.524
252.000	196.632	80.005	19.995	103.330	20.001	4.315	0.499
254.000	197.629	80.008	19.995	103.317	20.003	4.208	0.502
256.000	198.640	80.007	19.995	103.326	19.996	4.688	0.499
258.000	199.617	80.008	19.995	103.333	19.995	4.750	0.473
260.000	200.598	80.009	19.994	103.312	19.999	4.469	0.455
262.000	201.597	80.008	19.995	103.312	19.995	4.793	0.463
264.000	202.566	80.008	19.995	103.317	19.995	4.800	0.493
266.000	203.587	80.007	19.994	103.316	19.998	4.565	0.497
268.000	204.547	80.007	19.995	103.317	19.996	4.686	0.498
270.000	205.544	80.007	19.993	103.321	19.994	4.809	0.493
272.000	206.503	80.006	19.994	103.337	19.995	4.798	0.477
274.000	207.493	80.006	19.994	103.318	19.989	5.223	0.497
276.000	208.521	80.007	19.994	103.305	19.993	4.943	0.481
278.000	209.486	80.008	19.994	103.315	19.993	4.932	0.480
280.000	210.509	80.008	19.995	103.319	19.992	5.012	0.499
282.000	211.473	80.009	19.995	103.331	19.991	5.042	0.461
284.000	212.400	80.010	19.995	103.327	19.991	5.054	0.477
286.000	213.421	80.008	19.995	103.322	19.995	4.774	0.502
288.000	214.384	80.007	19.994	103.324	19.996	4.710	0.483
290.000	215.350	80.008	19.995	103.303	19.996	4.704	0.496
292.000	216.328	80.009	19.994	103.301	19.991	5.050	0.495
294.000	217.319	80.006	19.996	103.302	19.992	5.014	0.510
296.001	218.312	80.004	19.995	103.301	19.993	4.928	0.475
298.000	219.272	80.007	19.996	103.307	19.991	5.029	0.493
300.000	220.262	80.005	19.996	103.312	19.994	4.873	0.491
302.000	221.219	80.007	19.995	103.302	19.993	4.895	0.469
304.000	222.224	80.005	19.994	103.297	19.991	5.071	0.521
306.000	223.190	80.007	19.995	103.302	19.993	4.885	0.462
308.000	224.160	80.010	19.996	103.312	19.995	4.772	0.500
310.000	225.163	80.007	19.996	103.297	19.993	4.928	0.512
312.000	226.174	80.006	19.996	103.302	19.988	5.269	0.497
314.000	227.097	80.007	19.995	103.319	19.986	5.457	0.497
316.000	228.109	80.006	19.995	103.302	19.988	5.308	0.514
318.000	229.099	80.005	19.996	103.294	19.985	5.490	0.467
320.000	230.108	80.005	19.997	103.309	19.989	5.209	0.514
322.000	231.105	80.008	19.995	103.321	19.984	5.541	0.500
324.000	232.108	80.005	19.995	103.325	19.988	5.253	0.491
326.000	233.075	80.005	19.996	103.315	19.983	5.642	0.491
328.000	234.022	80.011	19.997	103.338	19.977	6.063	0.476
330.000	235.057	80.007	19.996	103.321	19.980	5.878	0.495
332.000	236.034	80.006	19.995	103.313	19.982	5.715	0.485
334.000	237.003	80.006	19.995	103.316	19.976	6.155	0.488
336.000	237.981	80.007	19.995	103.314	19.975	6.237	0.491
338.000	238.984	80.007	19.994	103.299	19.973	6.410	0.483
340.000	239.948	80.007	19.995	103.302	19.975	6.234	0.465
342.000	240.952	80.009	19.994	103.310	19.972	6.466	0.494
344.000	241.939	80.009	19.994	103.318	19.969	6.711	0.503
346.000	242.953	80.008	19.995	103.317	19.968	6.742	0.497
348.000	243.939	80.009	19.994	103.334	19.962	7.180	0.486
350.000	244.937	80.007	19.994	103.329	19.962	7.164	0.488
352.000	245.928	80.005	19.995	103.324	19.962	7.180	0.495
354.000	246.952	80.005	19.994	103.300	19.960	7.348	0.497
356.000	247.912	80.005	19.995	103.304	19.954	7.766	0.478
358.000	248.950	80.007	19.995	103.328	19.952	7.958	0.502
360.000	249.983	80.008	19.994	103.314	19.955	7.736	0.512
362.000	250.989	80.008	19.993	103.322	19.944	8.511	0.516
364.000	251.995	80.008	19.993	103.323	19.943	8.608	0.484
366.000	253.001	80.011	19.995	103.325	19.940	8.792	0.515
368.000	253.998	80.010	19.994	103.328	19.936	9.094	0.517
370.000	254.998	80.010	19.993	103.326	19.934	9.266	0.499
372.000	255.999	80.010	19.995	103.329	19.930	9.541	0.509
374.000	257.013	80.007	19.995	103.330	19.924	9.985	0.515
376.000	257.964	80.006	19.995	103.332	19.922	10.094	0.487
378.000	258.950	80.007	19.996	103.331	19.915	10.678	0.476
380.000	259.977	80.005	19.995	103.330	19.915	10.613	0.498
382.000	260.951	80.006	19.996	103.331	19.909	11.071	0.504
384.000	261.933	80.007	19.995	103.331	19.906	11.289	0.498
386.000	262.896	80.007	19.996	103.334	19.905	11.378	0.478
388.000	263.829	80.005	19.996	103.338	19.892	12.349	0.475
390.000	264.835	80.006	19.995	103.338	19.893	12.257	0.493
392.000	265.809	80.006	19.995	103.339	19.884	12.895	0.481
394.000	266.820	80.005	19.996	103.341	19.882	13.090	0.472
396.000	267.816	80.006	19.994	103.336	19.877	13.406	0.512
398.000	268.801	80.006	19.995	103.351	19.868	14.096	0.514
400.000	269.813	80.006	19.995	103.348	19.870	13.968	0.523
402.000	270.795	80.008	19.994	103.353	19.866	14.226	0.530
404.000	271.803	80.006	19.995	103.340	19.862	14.531	0.496
406.001	272.813	80.004	19.995	103.347	19.856	14.972	0.490
408.000	273.762	80.004	19.994	103.347	19.850	15.445	0.496
410.000	274.760	80.005	19.996	103.344	19.848	15.596	0.524
412.000	275.747	80.005	19.993	103.367	19.842	16.020	0.505
414.000	276.745	80.004	19.994	103.366	19.841	16.079	0.494
416.000	277.743	80.006	19.995	103.366	19.836	16.454	0.472
418.000	278.774	80.006	19.995	103.363	19.836	16.435	0.498
420.000	279.751	80.008	19.996	103.365	19.821	17.546	0.501
422.000	280.727	80.008	19.995	103.362	19.823	17.420	0.511
424.000	281.707	80.006	19.994	103.359	19.815	17.965	0.493
426.000	282.711	80.006	19.993	103.368	19.814	18.076	0.519
428.000	283.771	80.008	19.993	103.371	19.807	18.613	0.519
430.000	284.726	80.007	19.995	103.366	19.805	18.723	0.477
432.000	285.696	80.008	19.994	103.362	19.804	18.820	0.484
434.000	286.730	80.008	19.993	103.366	19.802	18.986	0.502
436.000	287.760	80.004	19.995	103.367	19.793	19.642	0.519
438.000	288.757	80.006	19.995	103.364	19.796	19.363	0.520
440.000	289.721	80.006	19.994	103.366	19.788	19.987	0.502
442.000	290.816	80.006	19.993	103.373	19.786	20.125	0.530
444.000	291.808	80.008	19.994	103.371	19.786	20.127	0.537
446.000	292.764	80.008	19.995	103.380	19.786	20.091	0.515
448.000	293.843	80.008	19.994	103.385	19.784	20.300	0.564
450.000	294.855	80.007	19.993	103.377	19.772	21.141	0.536
452.000	295.862	80.008	19.994	103.375	19.772	21.155	0.505
454.000	296.817	80.007	19.994	103.374	19.771	21.221	0.504
456.000	297.926	80.006	19.994	103.374	19.764	21.757	0.526
458.000	298.894	80.006	19.994	103.380	19.758	22.159	0.541
460.000	299.948	80.005	19.994	103.377	19.757	22.269	0.592
462.000	301.081	80.005	19.995	103.380	19.752	22.650	0.548
464.000	301.794	80.004	19.994	103.385	19.747	22.981	0.529
466.000	302.903	80.005	19.993	103.386	19.745	23.123	0.429
468.000	304.011	80.006	19.995	103.398	19.739	23.597	0.521
470.000	304.997	80.004	19.995	103.394	19.733	24.006	0.532
472.000	306.006	80.004	19.994	103.391	19.726	24.516	0.518
474.000	307.040	80.004	19.993	103.401	19.721	24.876	0.551
476.000	308.042	80.005	19.995	103.395	19.715	25.321	0.511
478.000	309.028	80.004	19.995	103.397	19.711	25.665	0.520
480.000	310.081	80.008	19.996	103.397	19.701	26.362	0.538
482.000	311.081	80.005	19.995	103.407	19.689	27.270	0.523
484.000	312.107	80.007	19.996	103.404	19.680	27.964	0.491
486.000	313.120	80.007	19.994	103.411	19.670	28.703	0.515
488.000	314.191	80.005	19.995	103.410	19.664	29.138	0.488
490.000	315.181	80.005	19.996	103.413	19.650	30.127	0.509
492.000	316.171	80.006	19.995	103.425	19.640	30.911	0.503
494.000	317.216	80.005	19.995	103.430	19.635	31.253	0.514
496.000	318.166	80.005	19.996	103.446	19.619	32.424	0.500
498.000	319.197	80.004	19.996	103.449	19.604	33.547	0.501
500.000	320.195	80.006	19.996	103.447	19.592	34.383	0.502
502.000	321.222	80.007	19.996	103.461	19.575	35.642	0.497
504.000	322.255	80.005	19.995	103.462	19.557	37.005	0.520
506.000	323.236	80.007	19.995	103.470	19.535	38.650	0.499
508.000	324.215	80.006	19.996	103.484	19.516	40.042	0.497
510.000	325.207	80.006	19.994	103.491	19.498	41.374	0.484
512.000	326.217	80.009	19.995	103.490	19.473	43.206	0.527
514.000	327.214	80.007	19.994	103.510	19.439	45.729	0.499
516.000	328.235	80.007	19.994	103.528	19.412	47.743	0.484
518.000	329.240	80.007	19.994	103.544	19.379	50.184	0.514
520.000	330.170	80.006	19.995	103.564	19.343	52.840	0.488
522.000	331.194	80.006	19.994	103.583	19.304	55.702	0.487
524.000	332.241	80.008	19.995	103.604	19.260	58.964	0.508
526.000	333.210	80.008	19.993	103.617	19.212	62.539	0.495
528.000	334.237	80.005	19.994	103.645	19.159	66.413	0.501
530.000	335.240	80.008	19.995	103.653	19.108	70.180	0.494
532.000	336.232	80.008	19.994	103.685	19.055	74.094	0.526
534.000	337.212	80.008	19.994	103.710	18.995	78.477	0.506
536.000	338.243	80.006	19.993	103.740	18.938	82.717	0.520
538.001	339.223	80.008	19.994	103.748	18.884	86.644	0.487
540.000	340.192	80.007	19.995	103.760	18.826	90.924	0.507
542.000	341.217	80.007	19.994	103.755	18.779	94.304	0.509
544.000	342.228	80.006	19.994	103.735	18.744	96.855	0.526
546.000	343.192	80.006	19.994	103.724	18.716	98.857	0.512
548.000	344.183	80.007	19.994	103.701	18.702	99.889	0.488
550.000	345.199	80.006	19.994	103.674	18.720	98.505	0.529
552.000	346.164	80.008	19.994	103.628	18.743	96.790	0.498
554.000	347.191	80.007	19.993	103.575	18.799	92.647	0.492
556.000	348.150	80.007	19.995	103.547	18.866	87.687	0.460
558.000	349.203	80.005	19.994	103.497	18.942	82.160	0.540
560.000	350.190	80.006	19.994	103.462	19.024	76.094	0.473
562.000	351.232	80.005	19.995	103.423	19.115	69.388	0.488
564.000	352.251	80.007	19.994	103.407	19.207	62.627	0.503
566.000	353.265	80.007	19.994	103.379	19.288	56.711	0.496
568.001	354.321	80.007	19.995	103.373	19.361	51.304	0.535
570.000	355.343	80.006	19.996	103.374	19.426	46.524	0.505
572.000	356.339	80.007	19.995	103.359	19.487	42.071	0.488
574.000	357.356	80.005	19.995	103.356	19.539	38.277	0.562
576.000	358.367	80.007	19.996	103.366	19.581	35.198	0.529
578.000	359.352	80.007	19.994	103.361	19.620	32.343	0.491
580.000	360.326	80.007	19.995	103.345	19.649	30.183	0.509
582.000	361.277	80.006	19.995	103.339	19.671	28.528	0.469
584.001	362.309	80.007	19.994	103.334	19.690	27.135	0.474
586.000	363.301	80.009	19.994	103.334	19.709	25.801	0.476
588.000	364.253	80.009	19.995	103.330	19.725	24.624	0.504
590.000	365.259	80.008	19.994	103.330	19.732	24.102	0.488
592.000	366.211	80.007	19.995	103.334	19.741	23.403	0.507
594.000	367.191	80.007	19.995	103.334	19.745	23.096	0.478
596.000	368.143	80.006	19.995	103.334	19.753	22.564	0.482
598.000	369.121	80.009	19.994	103.333	19.756	22.348	0.520
600.000	370.127	80.007	19.996	103.330	19.757	22.273	0.485
602.000	371.066	80.004	19.996	103.331	19.760	22.000	0.485
604.000	372.029	80.008	19.995	103.336	19.764	21.768	0.495
606.000	372.992	80.008	19.995	103.335	19.763	21.831	0.445
608.000	373.997	80.009	19.995	103.337	19.760	22.002	0.458
610.000	374.986	80.009	19.994	103.338	19.757	22.281	0.499
612.000	375.967	80.009	19.993	103.341	19.757	22.272	0.475
614.000	376.970	80.009	19.994	103.341	19.756	22.293	0.508
616.000	377.960	80.008	19.995	103.337	19.754	22.448	0.497
618.000	379.012	80.007	19.994	103.337	19.753	22.548	0.514
620.000	379.987	80.008	19.995	103.337	19.751	22.706	0.475
622.000	381.003	80.005	19.994	103.343	19.750	22.766	0.509
624.000	381.970	80.005	19.994	103.349	19.744	23.198	0.526
626.000	382.966	80.004	19.994	103.341	19.746	23.058	0.496
628.000	383.970	80.005	19.995	103.345	19.744	23.240	0.489
630.000	385.019	80.003	19.994	103.342	19.739	23.578	0.512
632.000	386.054	80.007	19.995	103.349	19.738	23.623	0.516
634.000	387.079	80.004	19.994	103.346	19.728	24.352	0.509
636.000	388.090	80.007	19.994	103.350	19.730	24.229	0.516
638.000	389.105	80.006	19.993	103.355	19.727	24.476	0.512
640.000	390.112	80.004	19.994	103.354	19.722	24.804	0.504
642.000	391.153	80.006	19.994	103.349	19.715	25.353	0.516
644.000	392.137	80.006	19.994	103.351	19.708	25.879	0.490
646.000	393.197	80.007	19.994	103.366	19.707	25.952	0.548
648.000	394.236	80.007	19.994	103.362	19.704	26.131	0.516
650.000	395.274	80.005	19.994	103.372	19.695	26.778	0.496
652.000	396.316	80.006	19.993	103.365	19.692	27.005	0.518
654.001	397.319	80.007	19.994	103.370	19.688	27.331	0.505
656.000	398.335	80.004	19.991	103.374	19.679	27.969	0.493
658.000	399.385	80.005	19.994	103.376	19.673	28.420	0.509
660.000	400.380	80.004	19.994	103.375	19.668	28.814	0.495
662.000	401.429	80.007	19.996	103.376	19.663	29.183	0.519
664.000	402.459	80.005	19.995	103.380	19.649	30.179	0.530
666.000	403.480	80.006	19.995	103.378	19.642	30.745	0.524
668.001	404.496	80.005	19.995	103.380	19.639	30.949	0.477
670.000	405.517	80.006	19.995	103.378	19.634	31.287	0.518
672.000	406.534	80.008	19.995	103.387	19.629	31.687	0.500
674.000	407.584	80.007	19.995	103.387	19.624	32.007	0.511
676.000	408.628	80.008	19.995	103.390	19.616	32.613	0.540
678.000	409.629	80.007	19.994	103.383	19.613	32.851	0.509
680.000	410.645	80.008	19.996	103.380	19.608	33.235	0.503
682.000	411.689	80.007	19.994	103.394	19.609	33.099	0.529
684.000	412.712	80.007	19.995	103.400	19.605	33.413	0.515
686.000	413.764	80.007	19.994	103.401	19.602	33.671	0.505
688.000	414.750	80.007	19.995	103.392	19.601	33.746	0.493
690.000	415.794	80.009	19.995	103.408	19.603	33.579	0.543
692.000	416.810	80.006	19.995	103.392	19.605	33.392	0.513
694.000	417.854	80.008	19.995	103.390	19.609	33.097	0.556
696.000	418.892	80.008	19.995	103.382	19.608	33.197	0.508
698.000	419.942	80.009	19.995	103.384	19.616	32.643	0.514
700.000	420.992	80.006	19.994	103.381	19.619	32.373	0.555
702.000	422.003	80.008	19.995	103.373	19.628	31.704	0.511
704.000	423.008	80.008	19.994	103.370	19.640	30.853	0.486
706.000	424.005	80.006	19.994	103.373	19.644	30.576	0.510
708.000	425.003	80.006	19.996	103.372	19.659	29.450	0.502
710.000	426.060	80.005	19.994	103.372	19.663	29.182	0.510
712.000	427.050	80.005	19.994	103.372	19.679	27.990	0.501
714.000	428.069	80.006	19.995	103.375	19.683	27.661	0.561
716.000	429.113	80.005	19.994	103.375	19.696	26.706	0.508
718.000	430.170	80.006	19.994	103.367	19.711	25.660	0.525
720.000	431.194	80.006	19.993	103.365	19.721	24.918	0.501
722.000	432.192	80.009	19.995	103.357	19.738	23.623	0.492
724.000	433.235	80.004	19.993	103.349	19.747	22.950	0.546
726.000	434.278	80.008	19.993	103.338	19.755	22.360	0.529
728.000	435.282	80.007	19.995	103.337	19.770	21.320	0.515
730.000	436.286	80.005	19.994	103.337	19.778	20.708	0.490
732.000	437.294	80.008	19.995	103.335	19.787	20.050	0.494
734.000	438.268	80.006	19.995	103.333	19.792	19.710	0.485
736.000	439.310	80.006	19.995	103.338	19.808	18.487	0.538
738.000	440.276	80.006	19.995	103.334	19.819	17.721	0.480
740.000	441.263	80.006	19.995	103.330	19.830	16.893	0.481
742.000	442.266	80.008	19.995	103.328	19.836	16.446	0.492
744.000	443.275	80.008	19.996	103.328	19.843	15.946	0.505
746.000	444.221	80.007	19.994	103.323	19.856	14.963	0.515
748.000	445.144	80.007	19.996	103.330	19.864	14.376	0.438
750.000	446.222	80.007	19.994	103.304	19.873	13.746	0.479
752.000	447.191	80.008	19.994	103.299	19.881	13.134	0.499
754.000	448.127	80.006	19.995	103.300	19.887	12.708	0.497
756.000	449.102	80.006	19.994	103.298	19.900	11.746	0.479
758.000	450.030	80.006	19.994	103.301	19.906	11.294	0.461
760.000	450.996	80.006	19.994	103.294	19.910	11.006	0.477
762.000	451.996	80.006	19.994	103.289	19.927	9.726	0.497
764.000	452.911	80.007	19.996	103.290	19.930	9.553	0.472
766.000	453.879	80.006	19.994	103.292	19.934	9.217	0.493
768.000	454.813	80.007	19.995	103.290	19.948	8.224	0.453
770.000	455.769	80.010	19.996	103.292	19.948	8.205	0.466
772.000	456.714	80.009	19.994	103.275	19.959	7.411	0.468
774.000	457.714	80.008	19.994	103.263	19.962	7.161	0.488
776.000	458.642	80.009	19.995	103.263	19.965	7.001	0.476
778.000	459.631	80.008	19.996	103.274	19.978	6.045	0.505
780.000	460.551	80.008	19.994	103.270	19.984	5.563	0.481
782.000	461.487	80.007	19.996	103.271	19.978	5.979	0.462
784.000	462.473	80.004	19.995	103.262	19.994	4.805	0.485
786.000	463.421	80.004	19.996	103.269	19.995	4.753	0.492
788.000	464.431	80.005	19.995	103.273	19.996	4.668	0.493
790.000	465.396	80.005	19.995	103.267	20.000	4.414	0.494
792.000	466.419	80.007	19.996	103.276	20.006	3.927	0.509
794.000	467.451	80.004	19.996	103.283	20.004	4.118	0.519
796.000	468.441	80.005	19.995	103.275	20.010	3.679	0.493
798.000	469.478	80.006	19.995	103.275	20.012	3.519	0.509
800.000	470.564	80.006	19.995	103.271	20.012	3.535	0.534
802.000	471.607	80.007	19.994	103.265	20.022	2.757	0.533
804.000	472.643	80.006	19.994	103.258	20.020	2.935	0.531
806.000	473.721	80.007	19.994	103.249	20.019	3.001	0.542
808.000	474.842	80.006	19.993	103.252	20.020	2.896	0.569
810.000	475.870	80.007	19.994	103.247	20.024	2.609	0.499
812.000	476.946	80.006	19.995	103.254	20.024	2.622	0.513
814.000	478.029	80.007	19.993	103.256	20.032	2.025	0.529
816.000	479.116	80.007	19.996	103.260	20.026	2.501	0.531
818.000	480.184	80.007	19.994	103.258	20.030	2.194	0.509
820.000	481.268	80.007	19.995	103.244	20.032	2.051	0.521
822.000	482.315	80.005	19.994	103.230	20.038	1.581	0.535
824.000	483.432	80.006	19.994	103.252	20.035	1.809	0.533
826.000	484.483	80.008	19.995	103.246	20.036	1.722	0.550
828.000	485.592	80.009	19.995	103.249	20.037	1.656	0.550
830.000	486.659	80.008	19.994	103.252	20.037	1.704	0.566
832.000	487.707	80.006	19.994	103.233	20.036	1.769	0.522
834.000	488.831	80.008	19.993	103.247	20.039	1.514	0.549
836.000	489.919	80.008	19.994	103.250	20.043	1.220	0.560
838.000	490.951	80.007	19.995	103.249	20.041	1.388	0.544
840.000	492.000	80.007	19.995	103.247	20.048	0.847	0.539
842.000	493.126	80.006	19.994	103.244	20.048	0.911	0.551
844.000	494.182	80.006	19.993	103.250	20.049	0.794	0.535
846.000	495.296	80.007	19.994	103.229	20.041	1.409	0.524
848.000	496.366	80.006	19.993	103.242	20.053	0.514	0.561
850.000	497.434	80.007	19.996	103.245	20.052	0.607	0.540
852.000	498.489	80.009	19.995	103.226	20.048	0.879	0.534
854.000	499.578	80.008	19.996	103.221	20.051	0.635	0.531
856.000	500.629	80.007	19.996	103.222	20.051	0.639	0.511
858.000	501.688	80.007	19.994	103.218	20.050	0.722	0.525
860.000	502.704	80.006	19.993	103.219	20.051	0.643	0.490
862.000	503.789	80.007	19.994	103.222	20.058	0.139	0.526
864.000	504.817	80.007	19.995	103.222	20.054	0.403	0.512
866.000	505.869	80.005	19.995	103.227	20.059	0.079	0.517
868.000	506.916	80.006	19.995	103.234	20.055	0.361	0.557
870.000	507.961	80.005	19.994	103.222	20.058	0.161	0.546
872.000	509.014	80.007	19.995	103.221	20.060	0.030	0.508
874.000	510.035	80.005	19.995	103.223	20.061	-0.103	0.490
876.000	511.095	80.005	19.995	103.225	20.061	-0.101	0.536
878.000	512.122	80.006	19.996	103.218	20.062	-0.119	0.529
880.000	513.138	80.005	19.997	103.217	20.064	-0.302	0.518
882.000	514.227	80.005	19.996	103.227	20.062	-0.188	0.500
884.000	515.273	80.006	19.996	103.231	20.065	-0.343	0.516
886.000	516.331	80.006	19.996	103.228	20.067	-0.486	0.521
888.000	517.372	80.005	19.995	103.224	20.064	-0.333	0.545
890.000	518.442	80.006	19.995	103.225	20.063	-0.190	0.522
892.001	519.467	80.006	19.995	103.220	20.066	-0.444	0.511
894.000	520.518	80.006	19.995	103.219	20.070	-0.770	0.519
896.000	521.532	80.007	19.995	103.220	20.066	-0.474	0.513
898.000	522.553	80.005	19.995	103.220	20.071	-0.839	0.521
900.000	523.622	80.005	19.994	103.232	20.068	-0.579	0.543
902.000	524.649	80.005	19.996	103.219	20.068	-0.571	0.510
904.000	525.669	80.005	19.995	103.227	20.069	-0.675	0.528
906.000	526.740	80.006	19.995	103.235	20.071	-0.786	0.525
908.000	527.766	80.007	19.995	103.232	20.077	-1.234	0.504
910.000	528.817	80.007	19.996	103.223	20.067	-0.540	0.529
912.000	529.838	80.007	19.995	103.222	20.071	-0.784	0.533
914.000	530.884	80.007	19.994	103.218	20.074	-1.054	0.534
916.000	531.902	80.008	19.994	103.221	20.075	-1.121	0.525
918.000	532.926	80.007	19.995	103.225	20.074	-1.065	0.552
920.000	533.955	80.006	19.996	103.218	20.073	-0.976	0.512
922.000	535.038	80.008	19.995	103.220	20.077	-1.236	0.552
924.000	536.023	80.007	19.993	103.221	20.073	-0.934	0.509
926.000	537.075	80.007	19.993	103.224	20.077	-1.266	0.474
928.000	538.163	80.006	19.993	103.223	20.071	-0.827	0.524
930.000	539.124	80.007	19.994	103.222	20.070	-0.734	0.511
932.000	540.196	80.007	19.993	103.227	20.074	-1.058	0.528
934.000	541.235	80.007	19.993	103.232	20.075	-1.117	0.514
936.000	542.265	80.009	19.994	103.216	20.077	-1.264	0.505
938.000	543.270	80.008	19.994	103.217	20.077	-1.228	0.517
940.000	544.305	80.007	19.994	103.216	20.080	-1.450	0.514
942.000	545.275	80.009	19.995	103.215	20.077	-1.244	0.484
944.000	546.355	80.008	19.995	103.215	20.077	-1.282	0.546
946.000	547.405	80.005	19.995	103.218	20.075	-1.137	0.550
948.000	548.393	80.006	19.995	103.223	20.076	-1.161	0.500
950.000	549.473	80.006	19.995	103.219	20.076	-1.153	0.500
952.000	550.520	80.007	19.994	103.216	20.077	-1.268	0.528
954.000	551.561	80.006	19.995	103.217	20.083	-1.691	0.535
956.000	552.640	80.005	19.997	103.216	20.078	-1.339	0.534
958.000	553.655	80.006	19.995	103.217	20.082	-1.639	0.507
960.000	554.702	80.007	19.994	103.217	20.078	-1.331	0.494
962.000	555.719	80.007	19.994	103.221	20.084	-1.734	0.513
964.000	556.764	80.006	19.995	103.218	20.088	-2.079	0.486
966.000	557.852	80.006	19.995	103.215	20.080	-1.506	0.553
968.000	558.893	80.006	19.997	103.216	20.082	-1.641	0.530
970.000	559.965	80.005	19.995	103.222	20.083	-1.669	0.530
972.000	561.002	80.004	19.996	103.221	20.083	-1.706	0.509
974.000	562.077	80.004	19.996	103.217	20.082	-1.597	0.531
976.000	563.126	80.004	19.996	103.216	20.082	-1.603	0.525
978.000	564.146	80.004	19.996	103.217	20.083	-1.720	0.509
980.000	565.164	80.004	19.995	103.220	20.086	-1.895	0.522
982.000	566.199	80.004	19.995	103.218	20.082	-1.613	0.504
984.000	567.272	80.004	19.994	103.217	20.082	-1.651	0.524
986.000	568.292	80.004	19.994	103.218	20.087	-2.014	0.534
988.000	569.343	80.005	19.994	103.219	20.085	-1.867	0.529
990.000	570.379	80.007	19.994	103.220	20.082	-1.653	0.529
992.000	571.423	80.007	19.995	103.219	20.084	-1.756	0.534
994.000	572.428	80.006	19.994	103.223	20.086	-1.933	0.517
996.000	573.511	80.006	19.994	103.231	20.085	-1.819	0.522
998.000	574.627	80.006	19.995	103.216	20.083	-1.687	0.545
1000.000	575.633	80.006	19.994	103.217	20.086	-1.933	0.499
1002.001	576.693	80.006	19.994	103.216	20.092	-2.325	0.526
1004.000	577.678	80.007	19.995	103.214	20.090	-2.224	0.474
1006.000	578.766	80.006	19.993	103.215	20.090	-2.214	0.526
1008.000	579.775	80.006	19.994	103.219	20.088	-2.095	0.512
1010.000	580.832	80.006	19.994	103.216	20.087	-1.984	0.520
1012.000	581.840	80.006	19.994	103.216	20.093	-2.399	0.533
1014.000	582.841	80.008	19.994	103.216	20.086	-1.895	0.522
1016.000	583.853	80.006	19.995	103.213	20.090	-2.213	0.490
1018.000	584.890	80.009	19.995	103.217	20.087	-2.000	0.493
1020.000	585.903	80.007	19.995	103.213	20.090	-2.203	0.505
1022.000	586.941	80.009	19.993	103.213	20.088	-2.026	0.507
1024.000	587.932	80.007	19.993	103.211	20.092	-2.329	0.485
1026.000	588.988	80.006	19.994	103.208	20.088	-2.038	0.499
1028.000	590.002	80.007	19.994	103.207	20.091	-2.242	0.531
1030.000	590.955	80.006	19.995	103.204	20.089	-2.163	0.475
1032.001	591.968	80.004	19.996	103.193	20.087	-1.988	0.484
1034.000	592.993	80.004	19.996	103.211	20.084	-1.738	0.504
1036.001	594.031	80.004	19.996	103.217	20.085	-1.806	0.530
1038.000	595.054	80.005	19.994	103.211	20.077	-1.258	0.517
1040.000	596.084	80.006	19.995	103.217	20.086	-1.889	0.512
1042.001	597.077	80.004	19.995	103.217	20.089	-2.105	0.494
1044.000	598.140	80.005	19.994	103.218	20.087	-1.976	0.568
1046.000	599.090	80.006	19.994	103.217	20.087	-1.952	0.478
1048.000	600.090	80.006	19.996	103.220	20.092	-2.361	0.506
1050.000	601.092	80.005	19.995	103.221	20.087	-1.969	0.525
1052.000	602.099	80.004	19.994	103.218	20.085	-1.825	0.538
1054.000	603.151	80.005	19.994	103.219	20.085	-1.823	0.508
1056.000	604.148	80.004	19.995	103.221	20.090	-2.220	0.479
1058.000	605.194	80.005	19.995	103.224	20.090	-2.189	0.524
1060.001	606.203	80.003	19.997	103.210	20.087	-1.994	0.500
1062.000	607.239	80.004	19.996	103.209	20.091	-2.280	0.555
1064.000	608.226	80.003	19.995	103.215	20.093	-2.419	0.524
1066.000	609.208	80.006	19.996	103.213	20.090	-2.193	0.489
1068.001	610.240	80.005	19.995	103.209	20.094	-2.464	0.509
1070.000	611.301	80.006	19.995	103.214	20.093	-2.461	0.507
1072.000	612.273	80.005	19.996	103.211	20.097	-2.685	0.469
1074.001	613.273	80.007	19.994	103.216	20.094	-2.475	0.465
1076.000	614.352	80.008	19.995	103.217	20.094	-2.514	0.540
1078.000	615.377	80.007	19.994	103.215	20.097	-2.732	0.532
1080.000	616.414	80.008	19.995	103.208	20.095	-2.577	0.515
1082.000	617.413	80.006	19.995	103.209	20.094	-2.482	0.500
1084.001	618.404	80.006	19.994	103.205	20.095	-2.550	0.507
1086.000	619.429	80.006	19.995	103.197	20.103	-3.175	0.518
1088.001	620.446	80.006	19.993	103.215	20.101	-3.032	0.489
1090.000	621.466	80.006	19.993	103.220	20.102	-3.100	0.470
1092.000	622.486	80.008	19.994	103.215	20.104	-3.229	0.482
1094.000	623.510	80.007	19.994	103.209	20.108	-3.515	0.516
1096.000	624.484	80.008	19.996	103.205	20.102	-3.107	0.467
1098.000	625.483	80.007	19.995	103.199	20.105	-3.294	0.488
1100.000	626.531	80.007	19.994	103.198	20.105	-3.302	0.481
1102.000	627.506	80.007	19.994	103.211	20.107	-3.448	0.483
1104.000	628.579	80.009	19.995	103.196	20.109	-3.569	0.511
1106.000	629.569	80.006	19.994	103.199	20.102	-3.084	0.505
1108.001	630.587	80.007	19.995	103.208	20.114	-3.953	0.529
1110.000	631.631	80.005	19.995	103.209	20.115	-4.023	0.526
1112.000	632.733	80.005	19.995	103.225	20.111	-3.741	0.536
1114.000	633.750	80.007	19.994	103.221	20.112	-3.783	0.540
1116.000	634.832	80.005	19.994	103.209	20.112	-3.846	0.528
1118.000	635.888	80.006	19.994	103.187	20.113	-3.912	0.535
1120.000	637.015	80.004	19.993	103.201	20.108	-3.550	0.582
1122.000	638.015	80.004	19.994	103.182	20.108	-3.542	0.523
1124.000	639.121	80.005	19.994	103.186	20.111	-3.731	0.537
1126.001	640.213	80.004	19.994	103.199	20.114	-3.943	0.546
1128.001	641.287	80.005	19.995	103.202	20.110	-3.665	0.543
1130.000	642.348	80.005	19.995	103.205	20.113	-3.902	0.537
1132.000	643.434	80.003	19.994	103.202	20.115	-4.053	0.541
1134.001	644.452	80.005	19.996	103.198	20.116	-4.140	0.516
1136.000	645.541	80.004	19.995	103.202	20.117	-4.148	0.545
1138.000	646.580	80.004	19.995	103.194	20.116	-4.105	0.529
1140.000	647.647	80.004	19.995	103.199	20.118	-4.228	0.527
1142.000	648.655	80.003	19.995	103.184	20.116	-4.142	0.494
1144.000	649.714	80.004	19.994	103.194	20.119	-4.344	0.533
1146.000	650.770	80.005	19.995	103.199	20.117	-4.150	0.498
1148.000	651.815	80.005	19.995	103.190	20.114	-4.000	0.523
1150.001	652.826	80.006	19.996	103.177	20.121	-4.458	0.504
1152.001	653.850	80.003	19.994	103.171	20.125	-4.748	0.537
1154.000	654.896	80.006	19.996	103.188	20.123	-4.654	0.500
1156.001	655.942	80.005	19.996	103.206	20.123	-4.646	0.520
1158.000	656.961	80.005	19.995	103.181	20.122	-4.576	0.501
1160.000	658.024	80.006	19.994	103.178	20.121	-4.464	0.503
1162.001	658.992	80.006	19.995	103.176	20.123	-4.622	0.501
1164.000	660.021	80.004	19.995	103.179	20.126	-4.829	0.495
1166.000	661.027	80.004	19.996	103.196	20.123	-4.592	0.482
1168.000	662.045	80.007	19.995	103.198	20.119	-4.349	0.492
1170.000	663.088	80.005	19.994	103.189	20.119	-4.336	0.504
1172.000	664.062	80.006	19.995	103.181	20.122	-4.523	0.508
1174.000	665.097	80.006	19.995	103.189	20.126	-4.871	0.517
1176.000	666.099	80.007	19.993	103.193	20.124	-4.682	0.523
1178.000	667.109	80.006	19.994	103.215	20.124	-4.676	0.519
1180.000	668.103	80.007	19.994	103.202	20.121	-4.492	0.501
1182.000	669.072	80.006	19.993	103.189	20.125	-4.734	0.479
1184.000	670.111	80.006	19.994	103.189	20.125	-4.764	0.507
1186.001	671.116	80.007	19.994	103.187	20.125	-4.784	0.520
1188.001	672.133	80.006	19.994	103.187	20.120	-4.426	0.507
1190.000	673.168	80.005	19.994	103.181	20.123	-4.650	0.521
1192.001	674.211	80.006	19.995	103.177	20.125	-4.754	0.520
1194.000	675.201	80.006	19.995	103.179	20.123	-4.627	0.498
1196.000	676.250	80.004	19.994	103.178	20.128	-4.964	0.518
1198.000	677.201	80.007	19.995	103.178	20.124	-4.714	0.471
1200.000	678.209	80.006	19.994	103.181	20.126	-4.849	0.485
1202.001	679.226	80.005	19.994	103.185	20.129	-5.035	0.473
1204.000	680.238	80.005	19.994	103.177	20.125	-4.795	0.504
1206.000	681.260	80.005	19.995	103.186	20.128	-4.982	0.512
1208.000	682.275	80.005	19.994	103.187	20.127	-4.897	0.531
1210.000	683.257	80.004	19.994	103.189	20.123	-4.599	0.491
1212.000	684.260	80.005	19.994	103.193	20.124	-4.714	0.468
1214.000	685.262	80.005	19.996	103.191	20.134	-5.397	0.499
1216.000	686.332	80.004	19.995	103.191	20.126	-4.846	0.515
1218.001	687.323	80.003	19.996	103.182	20.126	-4.825	0.518
1220.000	688.404	80.004	19.995	103.177	20.129	-5.041	0.536
1222.001	689.474	80.004	19.996	103.177	20.126	-4.873	0.535
1224.000	690.501	80.004	19.995	103.197	20.128	-4.976	0.517
1226.000	691.565	80.005	19.994	103.205	20.129	-5.067	0.523
1228.000	692.663	80.003	19.994	103.183	20.130	-5.123	0.539
1230.000	693.704	80.005	19.994	103.190	20.131	-5.232	0.543
1232.000	694.813	80.006	19.994	103.191	20.139	-5.824	0.524
1234.001	695.866	80.006	19.994	103.182	20.132	-5.303	0.548
1236.000	696.958	80.006	19.994	103.189	20.126	-4.839	0.549
1238.000	698.017	80.003	19.994	103.178	20.131	-5.192	0.545
1240.001	699.052	80.005	19.994	103.179	20.136	-5.563	0.524
1242.000	700.176	80.006	19.995	103.176	20.133	-5.372	0.576
1244.000	701.246	80.005	19.994	103.178	20.134	-5.417	0.542
1246.000	702.319	80.005	19.994	103.183	20.129	-5.077	0.574
1248.000	703.373	80.004	19.995	103.183	20.132	-5.297	0.527
1250.000	704.432	80.004	19.995	103.183	20.130	-5.172	0.536
1252.001	705.489	80.005	19.995	103.203	20.129	-5.066	0.533
1254.001	706.541	80.006	19.994	103.184	20.138	-5.738	0.524
1256.000	707.568	80.007	19.994	103.185	20.132	-5.299	0.493
1258.000	708.649	80.007	19.994	103.180	20.138	-5.702	0.540
1260.000	709.679	80.008	19.994	103.201	20.133	-5.333	0.540
1262.000	710.751	80.007	19.994	103.165	20.136	-5.613	0.564
1264.000	711.794	80.009	19.994	103.176	20.134	-5.434	0.543
1266.000	712.809	80.006	19.994	103.184	20.135	-5.536	0.505
1268.000	713.893	80.005	19.993	103.201	20.138	-5.742	0.559
1270.000	714.904	80.005	19.995	103.180	20.137	-5.667	0.516
1272.000	716.014	80.006	19.995	103.177	20.134	-5.464	0.535
1274.000	717.089	80.006	19.995	103.186	20.139	-5.811	0.566
1276.001	718.131	80.004	19.995	103.182	20.140	-5.844	0.559
1278.000	719.192	80.005	19.994	103.178	20.139	-5.784	0.519
1280.000	720.245	80.005	19.994	103.180	20.137	-5.626	0.527
1282.000	721.289	80.005	19.995	103.186	20.139	-5.778	0.539
1284.000	722.306	80.005	19.994	103.190	20.142	-6.010	0.509
1286.000	723.328	80.004	19.994	103.176	20.138	-5.699	0.493
1288.000	724.415	80.006	19.995	103.182	20.138	-5.726	0.545
1290.001	725.483	80.004	19.993	103.186	20.140	-5.899	0.553
1292.000	726.527	80.007	19.994	103.189	20.140	-5.835	0.551
1294.001	727.564	80.006	19.994	103.180	20.137	-5.619	0.499
1296.000	728.645	80.006	19.993	103.181	20.137	-5.681	0.529
1298.001	729.640	80.006	19.995	103.180	20.142	-6.050	0.490
1300.001	730.741	80.004	19.994	103.183	20.136	-5.607	0.545
1302.001	731.808	80.004	19.994	103.181	20.138	-5.700	0.530
1304.000	732.870	80.005	19.994	103.180	20.138	-5.732	0.549
1306.001	733.922	80.005	19.994	103.181	20.142	-6.036	0.541
1308.000	734.913	80.004	19.995	103.180	20.138	-5.736	0.535
1310.000	735.986	80.007	19.995	103.180	20.138	-5.760	0.535
1312.001	737.030	80.006	19.995	103.181	20.139	-5.788	0.524
1314.001	738.044	80.007	19.994	103.181	20.139	-5.792	0.548
1316.001	739.089	80.007	19.995	103.183	20.140	-5.875	0.545
1318.000	740.135	80.006	19.994	103.179	20.143	-6.108	0.523
1320.000	741.167	80.005	19.995	103.177	20.140	-5.848	0.525
1322.000	742.193	80.005	19.994	103.177	20.139	-5.824	0.498
1324.000	743.167	80.007	19.994	103.180	20.140	-5.842	0.476
1325.000	743.689	80.006	19.995	103.180	20.141	-5.923	0.515