File: 01_Data/Bamboo_Rug_Fabric/MCC/Bamboo_Rug_Fabric_MCC_30K_min_211129_R3.txt
Sample ID:	C:\MCC\MCC Cal\Test\Bamboo_RugB_MCC_30K_min_211129_R3.txt
Sample Weight (mg):	4.89
Heating Rate (C/s):	0.5
Combustor Temp (C):	900
N2 Flow Rate (cc/min):	80
O2 Flow Rate (cc/min):	20
Calibration File:	C:\MCC\MCC Cal\Coeff1 JN10440_30_210304.txt.txt
T Correction Coefficients:	0	1.024463	0
Time Shift (s):	14
*
Time (s)	Temperature (C)	N2 flow rate (cc/min)	O2 flow rate (cc/min)	Flow Rate (cc/min)	Oxygen (%)	HRR (W/g)	Heating rate (C/s)
0.000	110.763	80.003	19.995	103.120	20.248	-0.007	0.022
2.000	110.726	80.003	19.993	103.110	20.251	-0.186	-0.026
4.000	110.708	80.004	19.996	103.125	20.249	-0.067	0.008
6.000	110.724	80.002	19.996	103.138	20.250	-0.103	-0.001
8.000	110.738	80.003	19.994	103.137	20.250	-0.137	-0.017
10.000	110.738	80.003	19.995	103.137	20.248	0.014	0.022
12.000	110.740	80.003	19.994	103.136	20.251	-0.168	0.015
14.000	110.728	80.005	19.996	103.136	20.249	-0.036	0.009
16.000	110.767	80.005	19.996	103.138	20.248	0.025	0.030
18.000	110.764	80.004	19.995	103.150	20.247	0.065	-0.004
20.000	110.780	80.005	19.996	103.145	20.244	0.264	-0.009
22.000	110.828	80.005	19.995	103.155	20.245	0.216	0.023
24.000	110.857	80.005	19.997	103.174	20.240	0.504	0.012
26.000	110.912	80.003	19.994	103.186	20.235	0.864	0.012
28.000	110.948	80.004	19.995	103.241	20.232	1.021	0.034
30.000	111.065	80.004	19.994	103.276	20.223	1.621	0.050
32.000	111.177	80.005	19.994	103.295	20.226	1.476	0.086
33.999	111.324	80.006	19.993	103.296	20.224	1.592	0.063
35.999	111.513	80.006	19.994	103.279	20.221	1.790	0.132
37.999	111.717	80.005	19.994	103.279	20.220	1.837	0.103
39.999	111.956	80.006	19.994	103.284	20.222	1.730	0.116
41.999	112.203	80.005	19.994	103.290	20.220	1.848	0.126
44.000	112.500	80.005	19.993	103.300	20.219	1.921	0.155
46.000	112.784	80.005	19.994	103.315	20.216	2.108	0.169
47.999	113.121	80.003	19.995	103.322	20.215	2.191	0.194
50.000	113.441	80.002	19.994	103.331	20.214	2.218	0.191
51.999	113.802	80.003	19.994	103.340	20.208	2.613	0.170
53.999	114.211	80.003	19.993	103.357	20.209	2.559	0.207
55.999	114.625	80.002	19.995	103.359	20.210	2.498	0.216
57.999	115.051	80.003	19.994	103.344	20.206	2.777	0.225
59.999	115.553	80.003	19.995	103.350	20.205	2.837	0.254
61.999	116.000	80.004	19.994	103.347	20.206	2.784	0.251
63.999	116.503	80.003	19.994	103.333	20.207	2.694	0.260
65.999	117.039	80.004	19.994	103.349	20.204	2.906	0.309
67.999	117.586	80.003	19.994	103.361	20.204	2.908	0.272
69.999	118.130	80.003	19.995	103.366	20.206	2.779	0.295
71.999	118.716	80.005	19.993	103.372	20.204	2.924	0.268
73.999	119.334	80.004	19.994	103.373	20.202	3.042	0.348
75.999	119.954	80.003	19.994	103.377	20.199	3.250	0.325
77.999	120.607	80.003	19.995	103.375	20.201	3.103	0.307
79.999	121.304	80.003	19.996	103.372	20.199	3.214	0.335
81.999	121.980	80.003	19.995	103.372	20.201	3.080	0.315
83.999	122.696	80.003	19.994	103.372	20.198	3.268	0.362
85.999	123.419	80.003	19.995	103.371	20.201	3.072	0.372
87.999	124.101	80.003	19.996	103.377	20.203	2.944	0.360
89.999	124.864	80.004	19.994	103.377	20.199	3.256	0.405
92.000	125.617	80.005	19.994	103.374	20.200	3.132	0.377
93.999	126.377	80.004	19.994	103.372	20.197	3.375	0.387
95.999	127.151	80.005	19.995	103.372	20.193	3.599	0.401
97.999	127.922	80.005	19.994	103.374	20.196	3.400	0.385
99.999	128.702	80.004	19.995	103.388	20.196	3.454	0.379
102.000	129.559	80.003	19.995	103.385	20.196	3.431	0.433
103.999	130.336	80.003	19.995	103.378	20.193	3.642	0.413
106.000	131.173	80.004	19.995	103.386	20.194	3.577	0.409
107.999	132.026	80.002	19.996	103.400	20.193	3.659	0.442
110.000	132.845	80.004	19.996	103.392	20.192	3.667	0.421
111.999	133.742	80.003	19.994	103.395	20.192	3.683	0.442
113.999	134.621	80.003	19.995	103.400	20.192	3.684	0.438
116.000	135.531	80.003	19.995	103.381	20.193	3.616	0.452
118.000	136.364	80.006	19.994	103.386	20.196	3.433	0.440
119.999	137.323	80.006	19.993	103.393	20.195	3.510	0.469
121.999	138.189	80.006	19.994	103.374	20.199	3.252	0.419
123.999	139.143	80.006	19.994	103.378	20.197	3.363	0.477
126.000	140.093	80.007	19.994	103.374	20.195	3.477	0.474
127.999	140.999	80.006	19.994	103.378	20.194	3.546	0.470
130.000	141.973	80.004	19.994	103.380	20.196	3.406	0.478
132.000	142.912	80.003	19.993	103.380	20.197	3.394	0.498
134.000	143.904	80.004	19.994	103.375	20.198	3.297	0.484
136.000	144.908	80.005	19.993	103.381	20.197	3.356	0.508
138.000	145.846	80.002	19.994	103.381	20.193	3.606	0.505
140.000	146.841	80.004	19.995	103.372	20.195	3.473	0.477
142.000	147.813	80.004	19.994	103.385	20.195	3.469	0.479
144.000	148.806	80.005	19.994	103.376	20.197	3.354	0.495
146.000	149.782	80.003	19.995	103.382	20.197	3.337	0.501
148.000	150.788	80.005	19.995	103.376	20.196	3.449	0.512
150.000	151.744	80.004	19.995	103.376	20.193	3.647	0.492
152.000	152.766	80.004	19.994	103.371	20.192	3.665	0.514
154.000	153.744	80.003	19.995	103.375	20.193	3.611	0.489
156.000	154.692	80.004	19.994	103.374	20.193	3.631	0.498
158.000	155.698	80.003	19.993	103.373	20.193	3.654	0.477
160.000	156.695	80.004	19.995	103.370	20.189	3.870	0.489
162.000	157.749	80.004	19.994	103.373	20.193	3.642	0.543
164.000	158.705	80.004	19.994	103.374	20.189	3.890	0.475
166.000	159.705	80.003	19.994	103.369	20.190	3.811	0.501
168.000	160.701	80.003	19.994	103.375	20.190	3.798	0.494
170.000	161.717	80.003	19.993	103.374	20.190	3.807	0.499
172.000	162.745	80.004	19.994	103.367	20.189	3.872	0.496
174.000	163.765	80.004	19.994	103.371	20.192	3.702	0.511
176.000	164.815	80.004	19.994	103.359	20.193	3.649	0.534
178.000	165.793	80.005	19.994	103.343	20.192	3.722	0.490
180.000	166.805	80.005	19.993	103.335	20.194	3.546	0.493
182.000	167.831	80.006	19.993	103.335	20.194	3.571	0.499
184.000	168.811	80.006	19.993	103.339	20.195	3.520	0.479
186.000	169.810	80.005	19.994	103.332	20.193	3.600	0.474
188.000	170.828	80.004	19.994	103.330	20.193	3.618	0.507
190.000	171.755	80.006	19.994	103.331	20.194	3.571	0.491
192.000	172.724	80.006	19.993	103.324	20.194	3.539	0.486
194.000	173.652	80.004	19.996	103.321	20.193	3.618	0.503
196.000	174.618	80.004	19.995	103.326	20.192	3.722	0.474
198.000	175.582	80.005	19.994	103.324	20.191	3.763	0.467
200.000	176.497	80.005	19.995	103.329	20.191	3.742	0.473
202.000	177.441	80.006	19.995	103.328	20.194	3.566	0.497
204.000	178.445	80.006	19.996	103.326	20.194	3.586	0.498
206.000	179.286	80.007	19.996	103.330	20.190	3.838	0.439
208.000	180.258	80.007	19.995	103.329	20.190	3.836	0.480
210.000	181.206	80.005	19.995	103.330	20.193	3.638	0.500
212.000	182.103	80.005	19.994	103.326	20.190	3.847	0.464
214.000	183.029	80.005	19.995	103.325	20.189	3.903	0.452
216.000	183.976	80.003	19.993	103.330	20.188	3.983	0.468
218.000	184.873	80.003	19.994	103.327	20.186	4.109	0.435
220.000	185.828	80.003	19.993	103.325	20.185	4.140	0.491
222.000	186.780	80.004	19.995	103.318	20.185	4.160	0.503
224.000	187.706	80.004	19.994	103.340	20.182	4.366	0.451
226.000	188.632	80.003	19.994	103.345	20.182	4.367	0.478
228.000	189.619	80.003	19.994	103.351	20.181	4.408	0.473
230.000	190.531	80.003	19.994	103.354	20.179	4.553	0.476
232.000	191.489	80.004	19.994	103.348	20.180	4.451	0.460
234.000	192.481	80.003	19.994	103.339	20.177	4.700	0.482
236.000	193.510	80.004	19.994	103.341	20.178	4.640	0.515
238.000	194.470	80.003	19.994	103.329	20.178	4.611	0.483
240.000	195.429	80.003	19.994	103.320	20.176	4.741	0.473
242.000	196.373	80.004	19.994	103.311	20.181	4.433	0.499
244.000	197.350	80.003	19.994	103.319	20.180	4.457	0.475
246.000	198.347	80.002	19.994	103.328	20.179	4.517	0.494
248.000	199.299	80.005	19.994	103.322	20.177	4.708	0.467
250.000	200.255	80.004	19.994	103.314	20.177	4.651	0.473
252.000	201.228	80.005	19.993	103.322	20.176	4.739	0.475
254.000	202.194	80.005	19.993	103.329	20.178	4.603	0.481
256.000	203.088	80.005	19.995	103.330	20.176	4.713	0.477
258.000	204.091	80.006	19.994	103.309	20.174	4.892	0.461
260.000	205.030	80.007	19.994	103.314	20.176	4.761	0.444
262.000	205.977	80.005	19.995	103.314	20.174	4.888	0.490
264.000	206.905	80.006	19.994	103.310	20.176	4.743	0.471
266.000	207.881	80.005	19.994	103.318	20.171	5.058	0.476
268.000	208.801	80.005	19.996	103.321	20.173	4.973	0.462
270.000	209.789	80.004	19.994	103.308	20.172	5.018	0.499
272.000	210.734	80.005	19.995	103.313	20.170	5.147	0.501
274.000	211.668	80.004	19.994	103.321	20.172	5.029	0.478
276.000	212.579	80.006	19.994	103.301	20.170	5.136	0.425
278.000	213.605	80.005	19.995	103.314	20.171	5.090	0.510
280.000	214.500	80.005	19.993	103.309	20.170	5.141	0.461
282.000	215.419	80.008	19.993	103.310	20.167	5.324	0.450
284.000	216.341	80.007	19.994	103.318	20.170	5.159	0.451
286.000	217.336	80.006	19.995	103.310	20.168	5.258	0.479
288.000	218.276	80.005	19.995	103.331	20.166	5.412	0.489
290.000	219.223	80.003	19.995	103.336	20.166	5.407	0.465
292.000	220.197	80.004	19.995	103.336	20.164	5.543	0.485
294.000	221.148	80.004	19.995	103.334	20.168	5.260	0.481
296.000	222.219	80.002	19.995	103.336	20.161	5.746	0.536
298.000	223.171	80.003	19.995	103.333	20.161	5.704	0.494
300.000	224.204	80.003	19.996	103.331	20.162	5.657	0.506
302.000	225.174	80.003	19.995	103.328	20.161	5.764	0.521
304.000	226.176	80.004	19.994	103.330	20.154	6.181	0.526
306.000	227.203	80.002	19.994	103.328	20.154	6.167	0.507
308.000	228.266	80.004	19.994	103.332	20.156	6.036	0.560
310.000	229.272	80.003	19.994	103.331	20.158	5.952	0.519
312.000	230.323	80.004	19.994	103.334	20.159	5.842	0.519
314.000	231.387	80.006	19.994	103.335	20.152	6.328	0.501
316.000	232.408	80.003	19.994	103.326	20.153	6.289	0.532
318.000	233.403	80.005	19.993	103.326	20.153	6.235	0.507
320.000	234.466	80.005	19.994	103.333	20.151	6.394	0.506
322.000	235.503	80.004	19.995	103.330	20.152	6.338	0.528
324.000	236.591	80.005	19.994	103.332	20.148	6.602	0.521
326.000	237.658	80.003	19.994	103.339	20.147	6.688	0.552
328.000	238.638	80.003	19.995	103.329	20.144	6.870	0.510
330.000	239.704	80.004	19.994	103.329	20.146	6.707	0.528
332.000	240.789	80.005	19.995	103.331	20.144	6.856	0.528
334.000	241.822	80.005	19.995	103.319	20.140	7.104	0.530
336.000	242.903	80.005	19.994	103.332	20.140	7.130	0.549
338.000	243.895	80.006	19.993	103.322	20.139	7.213	0.499
340.000	244.950	80.006	19.993	103.322	20.136	7.378	0.516
342.000	246.015	80.007	19.995	103.319	20.132	7.670	0.546
344.000	247.017	80.006	19.993	103.325	20.130	7.806	0.491
346.000	248.061	80.004	19.993	103.327	20.124	8.190	0.532
348.000	249.093	80.006	19.994	103.323	20.119	8.478	0.524
350.000	250.174	80.005	19.994	103.330	20.118	8.602	0.524
352.000	251.229	80.005	19.994	103.333	20.114	8.848	0.551
354.000	252.264	80.004	19.994	103.334	20.109	9.168	0.524
356.000	253.341	80.006	19.996	103.334	20.106	9.384	0.537
358.000	254.306	80.006	19.996	103.335	20.100	9.783	0.500
360.000	255.403	80.005	19.995	103.333	20.098	9.920	0.514
362.000	256.392	80.006	19.995	103.335	20.091	10.376	0.504
364.000	257.444	80.008	19.994	103.329	20.087	10.629	0.533
366.000	258.489	80.006	19.994	103.333	20.079	11.143	0.535
368.000	259.468	80.005	19.994	103.335	20.077	11.305	0.513
370.000	260.522	80.006	19.994	103.331	20.075	11.408	0.510
372.000	261.521	80.004	19.994	103.336	20.068	11.896	0.483
374.000	262.530	80.003	19.994	103.334	20.060	12.361	0.521
376.000	263.509	80.004	19.994	103.336	20.053	12.826	0.505
378.000	264.531	80.004	19.994	103.339	20.046	13.324	0.496
380.000	265.556	80.005	19.994	103.333	20.049	13.137	0.527
382.000	266.517	80.004	19.994	103.332	20.040	13.710	0.486
384.000	267.494	80.003	19.997	103.336	20.040	13.724	0.502
386.000	268.450	80.003	19.996	103.345	20.035	14.034	0.435
388.000	269.424	80.003	19.995	103.365	20.025	14.727	0.480
390.000	270.423	80.003	19.995	103.362	20.024	14.798	0.497
392.000	271.400	80.003	19.995	103.345	20.019	15.098	0.480
394.000	272.392	80.004	19.995	103.354	20.011	15.648	0.484
396.000	273.382	80.005	19.995	103.349	20.004	16.083	0.481
398.000	274.344	80.005	19.994	103.340	20.000	16.325	0.517
400.000	275.271	80.005	19.994	103.345	19.994	16.729	0.462
402.000	276.213	80.004	19.995	103.359	19.986	17.269	0.464
404.000	277.171	80.005	19.994	103.362	19.984	17.434	0.464
406.000	278.151	80.004	19.994	103.356	19.982	17.526	0.503
408.000	279.074	80.005	19.994	103.361	19.977	17.856	0.480
410.000	280.030	80.005	19.994	103.354	19.973	18.159	0.450
412.000	281.012	80.004	19.994	103.362	19.969	18.369	0.496
414.000	281.950	80.004	19.995	103.372	19.967	18.525	0.449
416.000	282.910	80.004	19.994	103.371	19.962	18.866	0.484
418.000	283.887	80.004	19.994	103.369	19.958	19.118	0.516
420.000	284.798	80.004	19.995	103.372	19.952	19.522	0.468
422.000	285.730	80.005	19.994	103.370	19.950	19.662	0.465
424.000	286.739	80.005	19.994	103.372	19.947	19.822	0.488
426.000	287.681	80.004	19.994	103.370	19.941	20.248	0.525
428.000	288.642	80.006	19.993	103.370	19.938	20.415	0.490
430.000	289.607	80.004	19.994	103.371	19.936	20.549	0.482
432.000	290.582	80.004	19.994	103.373	19.932	20.857	0.467
434.000	291.519	80.004	19.993	103.375	19.932	20.846	0.489
436.000	292.474	80.004	19.994	103.376	19.930	20.979	0.471
438.000	293.441	80.006	19.994	103.374	19.923	21.443	0.500
440.000	294.375	80.005	19.993	103.375	19.917	21.818	0.463
442.000	295.416	80.007	19.994	103.383	19.914	22.035	0.509
444.000	296.328	80.005	19.995	103.381	19.910	22.299	0.487
446.000	297.355	80.006	19.994	103.383	19.907	22.482	0.506
448.000	298.414	80.007	19.995	103.401	19.904	22.684	0.555
450.000	299.395	80.006	19.994	103.395	19.900	22.927	0.501
452.000	300.398	80.006	19.995	103.406	19.896	23.221	0.490
454.000	301.454	80.005	19.994	103.405	19.892	23.495	0.545
456.000	302.460	80.004	19.996	103.391	19.886	23.914	0.517
458.000	303.526	80.004	19.995	103.405	19.880	24.287	0.563
460.000	304.571	80.005	19.995	103.407	19.873	24.763	0.534
462.000	305.658	80.003	19.995	103.408	19.867	25.160	0.556
464.000	306.710	80.003	19.993	103.409	19.857	25.788	0.571
466.000	307.826	80.005	19.994	103.409	19.849	26.302	0.570
468.000	308.859	80.003	19.995	103.411	19.843	26.750	0.522
470.000	309.950	80.004	19.995	103.423	19.833	27.387	0.536
472.000	311.048	80.004	19.995	103.417	19.826	27.829	0.550
474.000	312.137	80.005	19.995	103.418	19.817	28.461	0.557
476.000	313.217	80.004	19.995	103.428	19.809	28.984	0.539
478.000	314.316	80.003	19.995	103.440	19.799	29.645	0.532
480.000	315.406	80.003	19.996	103.443	19.785	30.532	0.550
482.000	316.465	80.003	19.996	103.448	19.770	31.562	0.518
484.000	317.570	80.003	19.995	103.449	19.761	32.125	0.527
486.000	318.640	80.003	19.995	103.447	19.748	33.038	0.535
488.000	319.690	80.004	19.996	103.450	19.730	34.201	0.532
490.000	320.774	80.003	19.995	103.451	19.716	35.127	0.534
492.000	321.841	80.003	19.995	103.461	19.698	36.308	0.515
494.000	322.900	80.004	19.995	103.460	19.680	37.541	0.526
496.000	323.972	80.002	19.995	103.483	19.661	38.814	0.552
498.000	325.015	80.003	19.995	103.492	19.640	40.196	0.514
500.000	326.086	80.004	19.994	103.497	19.617	41.720	0.550
502.000	327.087	80.005	19.993	103.520	19.588	43.596	0.477
504.000	328.147	80.006	19.994	103.527	19.564	45.248	0.521
506.000	329.251	80.004	19.994	103.546	19.535	47.177	0.527
508.000	330.295	80.005	19.994	103.567	19.504	49.227	0.513
510.000	331.294	80.006	19.994	103.567	19.465	51.789	0.515
512.000	332.362	80.005	19.995	103.581	19.425	54.456	0.544
514.000	333.403	80.006	19.994	103.602	19.380	57.478	0.518
516.000	334.462	80.005	19.995	103.625	19.334	60.524	0.530
518.000	335.481	80.005	19.994	103.645	19.281	64.046	0.529
520.000	336.495	80.006	19.994	103.670	19.227	67.584	0.505
522.000	337.528	80.007	19.995	103.706	19.166	71.641	0.528
524.000	338.596	80.006	19.994	103.730	19.105	75.681	0.529
526.000	339.608	80.005	19.994	103.757	19.040	79.999	0.495
528.000	340.622	80.008	19.994	103.763	18.973	84.427	0.537
530.000	341.656	80.007	19.995	103.781	18.908	88.679	0.528
532.000	342.659	80.008	19.994	103.801	18.845	92.793	0.517
534.000	343.677	80.007	19.994	103.800	18.788	96.575	0.511
536.000	344.683	80.005	19.994	103.800	18.736	99.970	0.527
538.000	345.659	80.006	19.995	103.796	18.695	102.585	0.510
540.000	346.699	80.003	19.995	103.774	18.672	104.080	0.519
542.000	347.640	80.003	19.994	103.717	18.669	104.204	0.504
544.000	348.656	80.003	19.996	103.675	18.699	102.237	0.516
546.000	349.658	80.003	19.995	103.635	18.740	99.461	0.499
548.000	350.623	80.003	19.995	103.571	18.806	95.116	0.504
550.000	351.637	80.003	19.995	103.510	18.886	89.838	0.506
552.000	352.617	80.004	19.994	103.470	18.979	83.728	0.507
554.000	353.587	80.004	19.996	103.444	19.078	77.193	0.475
556.000	354.550	80.003	19.994	103.407	19.180	70.470	0.462
558.000	355.502	80.005	19.994	103.396	19.273	64.309	0.469
560.000	356.435	80.004	19.994	103.376	19.364	58.323	0.462
562.000	357.411	80.004	19.995	103.377	19.443	53.056	0.469
564.000	358.352	80.003	19.994	103.375	19.515	48.366	0.507
566.000	359.319	80.003	19.995	103.372	19.576	44.336	0.514
568.000	360.248	80.002	19.996	103.374	19.629	40.824	0.476
570.000	361.250	80.003	19.996	103.362	19.673	37.914	0.497
572.000	362.205	80.004	19.996	103.358	19.708	35.589	0.462
574.000	363.186	80.004	19.995	103.361	19.741	33.466	0.498
576.000	364.143	80.004	19.996	103.368	19.764	31.937	0.508
578.000	365.051	80.005	19.995	103.366	19.780	30.835	0.449
580.000	366.043	80.003	19.995	103.339	19.793	30.012	0.489
582.000	367.011	80.004	19.995	103.341	19.807	29.064	0.485
584.000	367.969	80.006	19.997	103.359	19.815	28.566	0.450
586.000	368.972	80.005	19.994	103.350	19.825	27.898	0.492
588.000	369.946	80.004	19.995	103.347	19.829	27.653	0.453
590.000	370.915	80.006	19.995	103.355	19.832	27.447	0.472
592.000	371.903	80.004	19.995	103.344	19.835	27.217	0.506
594.000	372.868	80.006	19.995	103.357	19.834	27.276	0.472
596.000	373.860	80.004	19.995	103.368	19.837	27.091	0.495
598.000	374.824	80.005	19.995	103.370	19.841	26.870	0.451
600.000	375.826	80.006	19.995	103.362	19.840	26.902	0.482
602.000	376.801	80.004	19.994	103.349	19.837	27.084	0.495
604.000	377.799	80.006	19.994	103.365	19.837	27.118	0.489
606.000	378.753	80.006	19.994	103.365	19.835	27.222	0.463
608.000	379.742	80.005	19.994	103.365	19.833	27.371	0.495
610.000	380.745	80.006	19.994	103.360	19.828	27.701	0.486
612.000	381.770	80.005	19.994	103.354	19.830	27.589	0.500
614.000	382.722	80.006	19.994	103.360	19.825	27.876	0.510
616.000	383.704	80.005	19.994	103.368	19.822	28.092	0.461
618.000	384.666	80.003	19.995	103.370	19.821	28.195	0.487
620.000	385.687	80.005	19.994	103.371	19.816	28.467	0.505
622.000	386.661	80.003	19.994	103.369	19.807	29.087	0.481
624.000	387.656	80.004	19.994	103.377	19.807	29.079	0.521
626.000	388.671	80.004	19.994	103.377	19.807	29.095	0.483
628.000	389.700	80.002	19.995	103.375	19.799	29.641	0.491
630.000	390.703	80.003	19.993	103.375	19.794	29.921	0.516
632.000	391.770	80.003	19.993	103.379	19.789	30.256	0.526
634.000	392.712	80.006	19.995	103.386	19.782	30.755	0.488
636.000	393.758	80.005	19.994	103.381	19.781	30.829	0.520
638.000	394.794	80.005	19.994	103.394	19.773	31.310	0.513
640.000	395.847	80.004	19.994	103.394	19.766	31.805	0.543
642.000	396.856	80.005	19.994	103.388	19.757	32.410	0.523
644.000	397.879	80.005	19.995	103.393	19.749	32.951	0.534
646.000	398.902	80.004	19.995	103.384	19.741	33.461	0.545
648.000	399.945	80.003	19.995	103.399	19.739	33.583	0.520
650.000	400.985	80.004	19.994	103.405	19.725	34.503	0.544
652.000	402.071	80.004	19.995	103.404	19.719	34.901	0.550
654.000	403.109	80.004	19.995	103.404	19.710	35.472	0.576
656.000	404.166	80.004	19.995	103.406	19.711	35.459	0.501
658.000	405.220	80.003	19.995	103.411	19.702	36.023	0.479
660.000	406.245	80.005	19.995	103.409	19.692	36.704	0.452
662.000	407.388	80.005	19.996	103.402	19.683	37.280	0.585
664.000	408.331	80.007	19.994	103.409	19.679	37.571	0.470
666.000	409.285	80.007	19.995	103.408	19.675	37.820	0.510
668.000	410.033	80.001	19.996	103.407	19.670	38.165	0.246
670.000	411.299	80.006	19.996	103.408	19.666	38.423	0.129
672.000	412.575	80.005	19.994	103.406	19.669	38.211	0.456
674.000	413.455	80.003	19.997	103.411	19.662	38.635	0.602
676.000	414.456	80.007	19.995	103.409	19.664	38.559	0.530
678.000	415.432	80.006	19.995	103.409	19.666	38.416	0.462
680.000	416.492	80.004	19.995	103.410	19.667	38.335	0.498
682.000	417.515	80.004	19.996	103.411	19.673	37.900	0.504
684.000	418.472	80.005	19.995	103.410	19.680	37.476	0.501
686.000	419.546	80.005	19.994	103.410	19.683	37.246	0.487
688.000	420.482	80.008	19.995	103.409	19.690	36.798	0.446
690.000	421.515	80.007	19.994	103.406	19.700	36.170	0.505
692.000	422.472	80.005	19.994	103.401	19.707	35.677	0.525
694.000	423.518	80.004	19.995	103.380	19.718	34.953	0.488
696.000	424.414	80.007	19.994	103.381	19.724	34.544	0.521
698.000	425.415	80.006	19.995	103.375	19.739	33.568	0.492
700.000	426.383	80.004	19.994	103.376	19.750	32.861	0.495
702.000	427.310	80.004	19.993	103.375	19.765	31.825	0.495
704.000	428.275	80.005	19.996	103.372	19.773	31.295	0.490
706.000	429.229	80.004	19.994	103.371	19.788	30.320	0.482
708.000	430.198	80.003	19.995	103.366	19.804	29.267	0.462
710.000	431.147	80.004	19.994	103.355	19.813	28.653	0.466
712.000	432.127	80.004	19.994	103.341	19.825	27.870	0.515
714.000	433.103	80.005	19.994	103.344	19.840	26.935	0.478
716.000	434.116	80.006	19.995	103.360	19.849	26.296	0.531
718.000	435.035	80.005	19.994	103.353	19.863	25.398	0.451
720.000	436.030	80.004	19.994	103.331	19.871	24.885	0.469
722.000	437.047	80.004	19.995	103.335	19.886	23.836	0.480
724.000	437.965	80.006	19.995	103.349	19.895	23.302	0.484
726.000	438.959	80.004	19.993	103.361	19.905	22.620	0.498
728.000	439.936	80.003	19.995	103.355	19.915	21.967	0.485
730.000	440.929	80.004	19.996	103.332	19.922	21.480	0.474
732.000	441.905	80.005	19.995	103.338	19.933	20.790	0.500
734.000	442.898	80.005	19.994	103.331	19.942	20.180	0.464
736.000	443.899	80.004	19.994	103.335	19.949	19.701	0.490
738.000	444.893	80.004	19.994	103.339	19.959	19.058	0.483
740.000	445.973	80.004	19.994	103.337	19.966	18.587	0.540
742.000	446.903	80.004	19.996	103.334	19.977	17.890	0.487
744.000	447.896	80.006	19.994	103.328	19.982	17.499	0.484
746.000	448.937	80.004	19.994	103.317	19.993	16.828	0.538
748.000	449.965	80.006	19.997	103.315	20.002	16.211	0.520
750.000	450.981	80.005	19.994	103.311	20.009	15.723	0.498
752.000	452.006	80.005	19.994	103.313	20.019	15.097	0.530
754.000	453.036	80.003	19.994	103.309	20.023	14.843	0.526
756.000	454.055	80.002	19.996	103.300	20.034	14.102	0.497
758.000	455.087	80.004	19.995	103.301	20.040	13.685	0.502
760.000	456.134	80.004	19.996	103.301	20.044	13.425	0.490
762.000	457.129	80.004	19.997	103.295	20.052	12.931	0.489
764.000	458.184	80.004	19.995	103.291	20.056	12.626	0.511
766.000	459.246	80.005	19.996	103.284	20.062	12.233	0.528
768.000	460.280	80.005	19.995	103.289	20.068	11.864	0.506
770.000	461.320	80.006	19.995	103.279	20.072	11.590	0.515
772.000	462.362	80.007	19.995	103.283	20.075	11.389	0.529
774.000	463.419	80.007	19.993	103.269	20.082	10.922	0.548
776.000	464.430	80.007	19.996	103.252	20.085	10.710	0.497
778.000	465.426	80.006	19.995	103.261	20.089	10.489	0.519
780.000	466.465	80.006	19.992	103.255	20.095	10.071	0.515
782.000	467.503	80.006	19.994	103.256	20.100	9.727	0.515
784.000	468.541	80.002	19.995	103.257	20.104	9.480	0.541
786.000	469.558	80.006	19.993	103.259	20.106	9.341	0.519
788.000	470.596	80.005	19.996	103.258	20.108	9.200	0.508
790.000	471.623	80.006	19.993	103.256	20.113	8.925	0.510
792.000	472.654	80.005	19.994	103.255	20.111	9.002	0.511
794.000	473.722	80.005	19.994	103.257	20.114	8.810	0.555
796.000	474.758	80.005	19.993	103.258	20.116	8.713	0.512
798.000	475.830	80.006	19.995	103.257	20.119	8.514	0.517
800.000	476.863	80.005	19.996	103.254	20.119	8.526	0.510
802.000	477.964	80.005	19.993	103.255	20.117	8.608	0.554
804.000	478.996	80.005	19.994	103.253	20.122	8.309	0.531
806.000	480.058	80.004	19.994	103.254	20.123	8.219	0.524
808.000	481.050	80.005	19.996	103.256	20.128	7.928	0.487
810.000	482.141	80.005	19.992	103.256	20.128	7.900	0.526
812.000	483.156	80.004	19.995	103.256	20.130	7.775	0.539
814.000	484.200	80.006	19.994	103.248	20.132	7.606	0.511
816.000	485.195	80.003	19.994	103.239	20.129	7.820	0.484
818.000	486.265	80.004	19.994	103.237	20.133	7.588	0.520
820.000	487.310	80.005	19.994	103.227	20.133	7.568	0.529
822.000	488.340	80.004	19.992	103.244	20.131	7.698	0.526
824.000	489.331	80.003	19.995	103.227	20.133	7.569	0.505
826.000	490.390	80.007	19.993	103.240	20.138	7.268	0.501
828.000	491.417	80.005	19.996	103.248	20.136	7.376	0.525
830.000	492.421	80.008	19.995	103.249	20.136	7.365	0.505
832.000	493.482	80.007	19.997	103.242	20.139	7.197	0.522
834.000	494.534	80.007	19.995	103.241	20.139	7.200	0.529
836.000	495.546	80.007	19.995	103.234	20.139	7.153	0.513
838.000	496.541	80.007	19.997	103.220	20.143	6.934	0.476
840.000	497.574	80.005	19.995	103.230	20.144	6.842	0.522
842.000	498.615	80.007	19.993	103.221	20.141	7.064	0.519
844.000	499.574	80.006	19.994	103.242	20.142	6.952	0.476
846.000	500.625	80.006	19.997	103.241	20.145	6.795	0.526
848.000	501.681	80.006	19.995	103.247	20.147	6.627	0.524
850.000	502.673	80.006	19.996	103.247	20.145	6.759	0.532
852.000	503.683	80.006	19.995	103.246	20.145	6.788	0.510
854.000	504.738	80.007	19.995	103.232	20.149	6.543	0.489
856.000	505.777	80.007	19.997	103.227	20.145	6.813	0.531
858.000	506.769	80.006	19.993	103.228	20.148	6.555	0.473
860.000	507.812	80.007	19.995	103.218	20.147	6.658	0.523
862.000	508.818	80.006	19.994	103.225	20.144	6.828	0.515
864.000	509.829	80.005	19.995	103.220	20.146	6.695	0.486
866.000	510.855	80.003	19.994	103.216	20.150	6.482	0.515
868.000	511.851	80.005	19.995	103.228	20.149	6.489	0.501
870.000	512.845	80.006	19.994	103.234	20.150	6.453	0.505
872.000	513.871	80.005	19.995	103.234	20.149	6.509	0.514
874.000	514.914	80.004	19.994	103.217	20.150	6.455	0.522
876.000	515.886	80.006	19.995	103.223	20.153	6.287	0.481
878.000	516.878	80.006	19.995	103.229	20.151	6.395	0.477
880.000	517.918	80.005	19.994	103.220	20.153	6.223	0.510
882.000	518.930	80.006	19.993	103.222	20.150	6.469	0.453
884.000	519.915	80.005	19.995	103.228	20.151	6.402	0.502
886.000	520.938	80.004	19.995	103.234	20.151	6.366	0.495
888.000	521.962	80.004	19.994	103.230	20.150	6.448	0.522
890.000	522.953	80.004	19.996	103.221	20.149	6.518	0.514
892.000	524.000	80.005	19.992	103.217	20.151	6.393	0.549
894.000	525.002	80.004	19.995	103.217	20.152	6.299	0.495
896.000	526.010	80.004	19.994	103.218	20.151	6.374	0.492
898.000	527.034	80.004	19.994	103.224	20.151	6.368	0.518
900.000	528.048	80.005	19.996	103.235	20.151	6.406	0.485
902.000	529.125	80.005	19.993	103.220	20.153	6.266	0.552
904.000	530.095	80.006	19.994	103.227	20.155	6.098	0.523
906.000	531.143	80.007	19.995	103.228	20.154	6.195	0.517
908.000	532.177	80.007	19.994	103.192	20.151	6.373	0.484
910.000	533.180	80.008	19.994	103.250	20.157	6.005	0.485
912.000	534.214	80.007	19.994	103.239	20.156	6.061	0.493
914.000	535.263	80.006	19.994	103.227	20.154	6.208	0.508
916.000	536.332	80.006	19.995	103.225	20.155	6.128	0.536
918.000	537.330	80.004	19.995	103.216	20.154	6.166	0.515
920.000	538.351	80.005	19.994	103.213	20.152	6.291	0.531
922.000	539.386	80.005	19.995	103.213	20.151	6.390	0.517
924.000	540.409	80.007	19.995	103.214	20.152	6.325	0.533
926.000	541.442	80.006	19.995	103.214	20.149	6.489	0.516
928.000	542.443	80.005	19.995	103.222	20.146	6.741	0.529
930.000	543.483	80.006	19.996	103.244	20.149	6.498	0.495
932.000	544.472	80.006	19.995	103.227	20.151	6.371	0.491
934.000	545.471	80.007	19.994	103.221	20.149	6.537	0.498
936.000	546.495	80.007	19.994	103.232	20.147	6.625	0.525
938.000	547.510	80.007	19.995	103.224	20.148	6.601	0.524
940.000	548.518	80.007	19.995	103.219	20.150	6.471	0.501
942.000	549.486	80.007	19.994	103.225	20.148	6.573	0.488
944.000	550.553	80.005	19.995	103.250	20.151	6.375	0.536
946.000	551.515	80.003	19.996	103.231	20.148	6.603	0.475
948.000	552.490	80.005	19.996	103.227	20.145	6.769	0.531
950.000	553.489	80.003	19.995	103.218	20.146	6.712	0.489
952.000	554.518	80.003	19.994	103.229	20.149	6.514	0.487
954.000	555.504	80.005	19.996	103.235	20.144	6.820	0.489
956.000	556.519	80.005	19.995	103.220	20.145	6.768	0.468
958.000	557.557	80.005	19.994	103.217	20.148	6.602	0.501
960.000	558.582	80.004	19.994	103.221	20.145	6.777	0.526
962.000	559.574	80.005	19.994	103.225	20.150	6.456	0.499
964.000	560.569	80.006	19.995	103.214	20.144	6.831	0.510
966.000	561.629	80.006	19.995	103.215	20.148	6.617	0.514
968.000	562.605	80.005	19.995	103.228	20.149	6.541	0.530
970.000	563.646	80.006	19.995	103.237	20.145	6.771	0.490
972.000	564.659	80.005	19.994	103.221	20.147	6.648	0.496
974.000	565.675	80.005	19.994	103.218	20.147	6.635	0.518
976.000	566.705	80.003	19.994	103.222	20.147	6.671	0.520
978.000	567.741	80.005	19.995	103.219	20.146	6.693	0.523
980.000	568.748	80.005	19.994	103.220	20.149	6.534	0.538
982.000	569.762	80.004	19.995	103.217	20.149	6.511	0.501
984.000	570.760	80.005	19.994	103.214	20.148	6.596	0.506
986.000	571.760	80.007	19.994	103.216	20.147	6.652	0.503
988.000	572.774	80.006	19.996	103.214	20.145	6.759	0.492
990.000	573.858	80.006	19.995	103.216	20.148	6.558	0.529
992.000	574.901	80.006	19.995	103.219	20.147	6.635	0.508
994.000	575.909	80.007	19.995	103.232	20.147	6.677	0.511
996.000	576.944	80.006	19.994	103.221	20.146	6.734	0.515
998.000	577.926	80.007	19.994	103.227	20.144	6.825	0.487
1000.000	578.929	80.007	19.994	103.222	20.146	6.701	0.508
1002.000	579.916	80.006	19.995	103.239	20.144	6.864	0.495
1004.000	581.014	80.006	19.995	103.231	20.142	6.985	0.529
1006.000	582.036	80.006	19.994	103.231	20.146	6.741	0.526
1008.000	583.060	80.005	19.995	103.231	20.145	6.771	0.516
1010.000	584.096	80.006	19.995	103.239	20.143	6.882	0.518
1012.000	585.132	80.007	19.995	103.222	20.142	6.978	0.526
1014.000	586.216	80.006	19.995	103.222	20.145	6.751	0.543
1016.000	587.273	80.007	19.995	103.226	20.143	6.899	0.531
1018.000	588.326	80.006	19.994	103.219	20.140	7.144	0.489
1020.000	589.435	80.008	19.995	103.217	20.140	7.120	0.589
1022.000	590.506	80.007	19.994	103.223	20.140	7.103	0.548
1024.000	591.553	80.007	19.996	103.214	20.138	7.262	0.536
1025.999	592.620	80.005	19.995	103.215	20.137	7.295	0.525
1027.999	593.707	80.005	19.994	103.215	20.136	7.358	0.547
1030.000	594.793	80.004	19.996	103.215	20.136	7.350	0.525
1031.999	595.864	80.007	19.995	103.223	20.138	7.277	0.497
1033.999	596.916	80.005	19.995	103.223	20.134	7.496	0.526
1035.999	597.982	80.005	19.994	103.222	20.135	7.443	0.510
1037.999	599.076	80.005	19.995	103.223	20.134	7.480	0.531
1039.999	600.122	80.006	19.996	103.217	20.136	7.358	0.510
1042.000	601.219	80.005	19.996	103.224	20.135	7.467	0.531
1044.000	602.235	80.006	19.995	103.230	20.136	7.401	0.523
1045.999	603.261	80.006	19.995	103.226	20.135	7.466	0.527
1047.999	604.332	80.005	19.996	103.235	20.137	7.307	0.523
1049.999	605.423	80.006	19.995	103.222	20.136	7.385	0.520
1051.999	606.453	80.005	19.995	103.226	20.135	7.435	0.543
1053.999	607.520	80.005	19.994	103.238	20.141	7.061	0.559
1056.000	608.548	80.007	19.995	103.235	20.138	7.224	0.503
1057.999	609.573	80.004	19.995	103.214	20.135	7.473	0.493
1059.999	610.649	80.005	19.994	103.222	20.137	7.330	0.553
1062.000	611.689	80.004	19.994	103.223	20.137	7.338	0.540
1063.999	612.741	80.005	19.994	103.217	20.136	7.365	0.544
1065.999	613.790	80.004	19.994	103.223	20.134	7.499	0.535
1068.000	614.858	80.005	19.994	103.221	20.135	7.419	0.550
1069.999	615.915	80.007	19.994	103.218	20.135	7.411	0.492
1071.999	616.992	80.007	19.994	103.218	20.134	7.486	0.515
1073.999	617.989	80.006	19.994	103.218	20.137	7.293	0.511
1075.999	619.012	80.006	19.994	103.217	20.137	7.278	0.496
1077.999	620.074	80.006	19.995	103.217	20.138	7.224	0.513
1079.999	621.118	80.005	19.994	103.227	20.138	7.269	0.496
1081.999	622.173	80.006	19.994	103.222	20.139	7.148	0.556
1084.000	623.175	80.005	19.994	103.220	20.137	7.310	0.531
1085.999	624.202	80.006	19.994	103.220	20.138	7.255	0.524
1088.000	625.266	80.006	19.995	103.218	20.141	7.025	0.544
1089.999	626.277	80.007	19.993	103.217	20.143	6.934	0.485
1091.999	627.256	80.008	19.994	103.216	20.148	6.558	0.470
1093.999	628.365	80.009	19.994	103.219	20.140	7.111	0.513
1095.999	629.372	80.008	19.993	103.214	20.143	6.910	0.490
1097.999	630.426	80.007	19.994	103.222	20.145	6.813	0.548
1099.999	631.448	80.008	19.994	103.221	20.145	6.793	0.527
1101.999	632.490	80.009	19.993	103.223	20.144	6.841	0.541
1103.999	633.514	80.009	19.994	103.215	20.143	6.914	0.506
1106.000	634.517	80.007	19.995	103.215	20.145	6.758	0.506
1107.999	635.544	80.006	19.997	103.219	20.147	6.635	0.527
1109.999	636.550	80.006	19.995	103.225	20.149	6.532	0.505
1111.999	637.582	80.007	19.995	103.218	20.145	6.771	0.504
1114.000	638.654	80.005	19.996	103.224	20.146	6.704	0.537
1116.001	639.655	80.006	19.995	103.216	20.146	6.704	0.513
1117.999	640.623	80.006	19.994	103.215	20.147	6.680	0.474
1119.999	641.682	80.005	19.995	103.214	20.152	6.329	0.507
1122.000	642.706	80.006	19.995	103.215	20.147	6.628	0.517
1123.999	643.690	80.005	19.994	103.215	20.146	6.700	0.484
1126.000	644.739	80.006	19.995	103.216	20.148	6.585	0.485
1127.999	645.729	80.006	19.995	103.215	20.147	6.679	0.519
1129.999	646.728	80.006	19.995	103.218	20.147	6.677	0.482
1131.999	647.806	80.007	19.995	103.213	20.147	6.650	0.482
1133.999	648.807	80.006	19.996	103.210	20.147	6.642	0.491
1136.000	649.758	80.006	19.996	103.215	20.148	6.601	0.481
1137.999	650.832	80.005	19.995	103.219	20.149	6.498	0.510
1139.999	651.847	80.005	19.996	103.219	20.147	6.651	0.489
1141.999	652.878	80.005	19.996	103.216	20.148	6.577	0.516
1144.000	653.887	80.005	19.995	103.207	20.151	6.405	0.520
1146.000	654.893	80.004	19.995	103.214	20.150	6.429	0.525
1147.999	655.900	80.004	19.994	103.219	20.144	6.823	0.518
1150.000	656.951	80.005	19.993	103.217	20.144	6.830	0.512
1151.999	657.921	80.006	19.995	103.216	20.143	6.888	0.487
1154.000	658.967	80.007	19.996	103.211	20.148	6.592	0.490
1156.000	659.992	80.008	19.995	103.213	20.145	6.784	0.493
1157.999	661.003	80.009	19.995	103.212	20.146	6.744	0.524
1159.999	662.003	80.007	19.995	103.212	20.146	6.736	0.473
1161.999	663.032	80.006	19.995	103.213	20.144	6.836	0.487
1163.999	664.032	80.006	19.994	103.206	20.144	6.847	0.516
1165.999	665.003	80.006	19.994	103.196	20.142	6.993	0.494
1168.000	666.093	80.006	19.996	103.212	20.146	6.691	0.541
1169.999	667.060	80.008	19.995	103.211	20.147	6.656	0.492
1171.999	668.073	80.007	19.995	103.211	20.140	7.121	0.490
1174.000	669.081	80.007	19.994	103.213	20.143	6.930	0.489
1175.999	670.090	80.007	19.995	103.207	20.141	7.022	0.494
1178.000	671.105	80.008	19.994	103.210	20.140	7.118	0.514
1179.999	672.073	80.008	19.994	103.209	20.143	6.937	0.504
1181.999	673.062	80.010	19.994	103.208	20.139	7.176	0.501
1184.000	674.103	80.008	19.994	103.206	20.142	6.982	0.499
1185.999	675.075	80.008	19.994	103.214	20.140	7.087	0.445
1188.000	676.113	80.009	19.994	103.213	20.141	7.069	0.519
1189.999	677.116	80.005	19.994	103.213	20.143	6.934	0.503
1191.999	678.126	80.006	19.994	103.202	20.141	7.050	0.489
1193.999	679.197	80.006	19.995	103.217	20.139	7.176	0.560
1196.000	680.190	80.004	19.995	103.206	20.143	6.928	0.518
1197.999	681.170	80.005	19.995	103.209	20.142	6.948	0.512
1199.999	682.174	80.005	19.993	103.215	20.143	6.906	0.494
1201.999	683.263	80.005	19.994	103.216	20.143	6.938	0.552
1203.999	684.268	80.007	19.995	103.217	20.139	7.148	0.503
1205.999	685.281	80.005	19.995	103.214	20.140	7.100	0.514
1207.999	686.260	80.004	19.994	103.214	20.139	7.169	0.504
1209.999	687.315	80.007	19.995	103.200	20.139	7.200	0.529
1212.000	688.314	80.007	19.995	103.214	20.137	7.329	0.496
1213.999	689.308	80.007	19.995	103.217	20.136	7.361	0.493
1216.000	690.350	80.006	19.995	103.217	20.135	7.420	0.495
1217.999	691.374	80.004	19.994	103.212	20.142	6.989	0.522
1219.999	692.353	80.006	19.995	103.216	20.142	6.973	0.505
1221.999	693.379	80.005	19.995	103.217	20.142	6.975	0.487
1223.999	694.435	80.004	19.996	103.222	20.143	6.946	0.509
1226.000	695.421	80.005	19.996	103.220	20.139	7.203	0.518
1227.999	696.440	80.004	19.997	103.207	20.139	7.189	0.485
1229.999	697.462	80.007	19.995	103.211	20.139	7.194	0.547
1231.999	698.455	80.006	19.997	103.202	20.137	7.312	0.510
1233.999	699.517	80.006	19.996	103.211	20.140	7.115	0.521
1236.000	700.471	80.006	19.995	103.205	20.141	7.056	0.478
1237.999	701.516	80.008	19.995	103.207	20.137	7.335	0.542
1239.999	702.494	80.007	19.994	103.213	20.140	7.100	0.462
1241.999	703.468	80.009	19.995	103.211	20.138	7.239	0.483
1243.999	704.502	80.006	19.995	103.211	20.141	7.044	0.498
1246.000	705.539	80.006	19.995	103.212	20.137	7.340	0.538
1248.001	706.533	80.007	19.995	103.209	20.136	7.357	0.520
1249.999	707.535	80.006	19.994	103.216	20.131	7.714	0.529
1252.000	708.534	80.006	19.995	103.209	20.133	7.558	0.498
1253.999	709.555	80.007	19.995	103.215	20.131	7.732	0.510
1255.999	710.522	80.007	19.995	103.216	20.135	7.451	0.482
1257.999	711.520	80.009	19.994	103.217	20.134	7.538	0.508
1260.000	712.540	80.011	19.994	103.213	20.135	7.443	0.500
1261.999	713.549	80.008	19.995	103.207	20.135	7.465	0.508
1263.999	714.525	80.007	19.994	103.212	20.137	7.332	0.503
1266.000	715.538	80.007	19.994	103.213	20.139	7.150	0.480
1267.999	716.573	80.006	19.993	103.209	20.133	7.540	0.520
1270.000	717.590	80.007	19.994	103.210	20.139	7.193	0.524
1271.999	718.553	80.006	19.994	103.204	20.135	7.462	0.518
1273.999	719.496	80.001	19.993	103.213	20.140	7.132	0.400
1275.999	720.615	80.006	19.993	103.208	20.135	7.413	0.470
1277.999	721.616	80.007	19.994	103.208	20.133	7.574	0.476
1279.999	722.626	80.006	19.994	103.216	20.132	7.659	0.489
1282.000	723.642	80.006	19.994	103.210	20.132	7.657	0.502
1283.999	724.656	80.007	19.995	103.207	20.135	7.449	0.517
1285.999	725.644	80.006	19.995	103.198	20.136	7.375	0.515
1287.999	726.660	80.007	19.994	103.207	20.132	7.670	0.480
1290.000	727.655	80.006	19.995	103.209	20.134	7.538	0.502
1291.999	728.677	80.006	19.995	103.210	20.133	7.558	0.498
1293.999	729.656	80.006	19.995	103.210	20.134	7.529	0.487
1296.000	730.704	80.007	19.995	103.213	20.130	7.803	0.515
1297.999	731.697	80.005	19.996	103.213	20.137	7.339	0.495
1299.999	732.705	80.007	19.995	103.214	20.135	7.460	0.497
1301.999	733.757	80.007	19.995	103.215	20.136	7.370	0.523
1303.999	734.754	80.005	19.995	103.212	20.134	7.529	0.503
1305.999	735.813	80.004	19.994	103.212	20.136	7.406	0.552
1307.999	736.750	80.005	19.996	103.211	20.134	7.535	0.469
1310.000	737.766	80.006	19.995	103.208	20.133	7.583	0.507
1311.999	738.763	80.006	19.995	103.213	20.135	7.418	0.512
1314.000	739.786	80.006	19.995	103.214	20.132	7.658	0.516
1315.999	740.792	80.006	19.995	103.214	20.133	7.559	0.488
1318.000	741.823	80.005	19.995	103.214	20.131	7.696	0.521
1319.999	742.803	80.005	19.995	103.210	20.132	7.644	0.526
1321.999	743.793	80.006	19.995	103.202	20.133	7.567	0.511