File: 01_Data/Triexta_Carpet_High_Pile/FTIR/IS/Triexta_Carpet_High_Pile_IS_S_221121_R6.dpt
7497.03,0.84437
7491.25,0.83833
7485.46,0.84711
7479.67,0.84444
7473.89,0.84254
7468.1,0.84031
7462.32,0.84075
7456.53,0.83735
7450.74,0.83752
7444.96,0.83434
7439.17,0.83526
7433.38,0.83103
7427.6,0.82657
7421.81,0.82632
7416.03,0.82251
7410.24,0.82547
7404.45,0.83136
7398.67,0.82057
7392.88,0.83218
7387.09,0.81963
7381.31,0.81536
7375.52,0.81331
7369.74,0.81325
7363.95,0.80650
7358.16,0.80890
7352.38,0.80970
7346.59,0.78951
7340.8,0.79295
7335.02,0.78678
7329.23,0.78879
7323.45,0.78898
7317.66,0.78812
7311.87,0.78778
7306.09,0.79560
7300.3,0.79861
7294.51,0.78926
7288.73,0.80215
7282.94,0.79989
7277.16,0.79870
7271.37,0.78369
7265.58,0.80165
7259.8,0.79994
7254.01,0.79586
7248.22,0.78547
7242.44,0.79413
7236.65,0.78933
7230.87,0.78910
7225.08,0.78676
7219.29,0.77715
7213.51,0.77714
7207.72,0.76900
7201.93,0.78119
7196.15,0.78659
7190.36,0.78200
7184.58,0.78751
7178.79,0.78364
7173,0.78655
7167.22,0.79002
7161.43,0.78913
7155.65,0.78310
7149.86,0.77928
7144.07,0.77833
7138.29,0.78060
7132.5,0.79449
7126.71,0.78802
7120.93,0.78705
7115.14,0.77880
7109.36,0.78798
7103.57,0.78836
7097.78,0.79193
7092,0.78935
7086.21,0.78894
7080.42,0.78462
7074.64,0.78216
7068.85,0.78489
7063.07,0.77450
7057.28,0.77730
7051.49,0.78274
7045.71,0.78027
7039.92,0.78084
7034.13,0.78111
7028.35,0.77526
7022.56,0.78243
7016.78,0.78314
7010.99,0.78803
7005.2,0.78514
6999.42,0.78331
6993.63,0.78368
6987.84,0.78602
6982.06,0.79403
6976.27,0.78919
6970.49,0.79628
6964.7,0.79721
6958.91,0.79542
6953.13,0.80192
6947.34,0.79376
6941.55,0.79419
6935.77,0.79910
6929.98,0.79953
6924.2,0.79498
6918.41,0.80130
6912.62,0.80570
6906.84,0.80168
6901.05,0.80144
6895.26,0.80370
6889.48,0.80422
6883.69,0.80288
6877.91,0.80638
6872.12,0.80220
6866.33,0.80903
6860.55,0.80804
6854.76,0.80655
6848.97,0.80510
6843.19,0.81310
6837.4,0.81774
6831.62,0.81698
6825.83,0.81465
6820.04,0.81394
6814.26,0.81715
6808.47,0.82613
6802.68,0.82138
6796.9,0.82663
6791.11,0.82066
6785.33,0.82501
6779.54,0.82850
6773.75,0.83023
6767.97,0.82550
6762.18,0.82817
6756.39,0.82634
6750.61,0.82153
6744.82,0.82386
6739.04,0.83160
6733.25,0.82762
6727.46,0.82824
6721.68,0.83385
6715.89,0.82815
6710.1,0.83024
6704.32,0.82763
6698.53,0.83454
6692.75,0.83159
6686.96,0.83547
6681.17,0.83914
6675.39,0.83221
6669.6,0.84025
6663.82,0.83599
6658.03,0.83503
6652.24,0.83342
6646.46,0.83316
6640.67,0.83494
6634.88,0.83960
6629.1,0.83877
6623.31,0.83995
6617.53,0.83916
6611.74,0.84190
6605.95,0.84447
6600.17,0.84660
6594.38,0.84515
6588.59,0.84231
6582.81,0.84337
6577.02,0.84432
6571.24,0.84287
6565.45,0.84148
6559.66,0.84363
6553.88,0.84326
6548.09,0.84513
6542.3,0.84953
6536.52,0.84284
6530.73,0.84161
6524.95,0.84200
6519.16,0.83973
6513.37,0.84511
6507.59,0.84436
6501.8,0.84496
6496.01,0.84657
6490.23,0.84040
6484.44,0.83998
6478.66,0.84077
6472.87,0.84610
6467.08,0.84275
6461.3,0.83978
6455.51,0.84199
6449.72,0.84745
6443.94,0.84166
6438.15,0.84274
6432.37,0.84442
6426.58,0.84008
6420.79,0.84628
6415.01,0.83998
6409.22,0.83906
6403.43,0.84040
6397.65,0.84687
6391.86,0.84373
6386.08,0.84209
6380.29,0.83952
6374.5,0.84019
6368.72,0.84387
6362.93,0.84348
6357.14,0.84181
6351.36,0.83888
6345.57,0.83913
6339.79,0.83430
6334,0.83630
6328.21,0.83850
6322.43,0.83667
6316.64,0.83477
6310.85,0.83406
6305.07,0.83481
6299.28,0.83924
6293.5,0.83986
6287.71,0.83711
6281.92,0.83379
6276.14,0.83278
6270.35,0.83125
6264.56,0.83035
6258.78,0.83019
6252.99,0.82698
6247.21,0.82542
6241.42,0.82256
6235.63,0.82455
6229.85,0.82184
6224.06,0.81950
6218.27,0.81650
6212.49,0.80763
6206.7,0.79686
6200.92,0.78646
6195.13,0.77602
6189.34,0.78085
6183.56,0.78312
6177.77,0.78526
6171.98,0.78230
6166.2,0.77832
6160.41,0.77853
6154.63,0.76823
6148.84,0.76179
6143.05,0.75975
6137.27,0.76141
6131.48,0.75356
6125.7,0.74961
6119.91,0.74067
6114.12,0.72384
6108.34,0.70581
6102.55,0.68292
6096.76,0.65823
6090.98,0.63645
6085.19,0.62334
6079.41,0.60630
6073.62,0.58825
6067.83,0.56231
6062.05,0.53386
6056.26,0.51416
6050.47,0.50685
6044.69,0.49703
6038.9,0.48422
6033.12,0.47346
6027.33,0.46837
6021.54,0.46580
6015.76,0.47014
6009.97,0.48331
6004.18,0.50472
5998.4,0.52399
5992.61,0.54255
5986.83,0.55475
5981.04,0.56742
5975.25,0.57241
5969.47,0.57702
5963.68,0.57894
5957.89,0.57860
5952.11,0.57208
5946.32,0.55977
5940.54,0.55638
5934.75,0.56389
5928.96,0.57910
5923.18,0.59133
5917.39,0.60195
5911.6,0.60919
5905.82,0.61050
5900.03,0.61217
5894.25,0.61235
5888.46,0.61537
5882.67,0.61750
5876.89,0.62109
5871.1,0.62504
5865.31,0.63501
5859.53,0.63671
5853.74,0.63664
5847.96,0.63406
5842.17,0.62836
5836.38,0.62162
5830.6,0.61480
5824.81,0.60822
5819.02,0.59459
5813.24,0.58522
5807.45,0.57790
5801.67,0.57561
5795.88,0.57618
5790.09,0.57931
5784.31,0.59002
5778.52,0.60346
5772.73,0.61299
5766.95,0.61676
5761.16,0.62026
5755.38,0.62187
5749.59,0.62350
5743.8,0.62838
5738.02,0.63044
5732.23,0.63909
5726.44,0.64125
5720.66,0.64764
5714.87,0.65056
5709.09,0.65291
5703.3,0.65858
5697.51,0.66616
5691.73,0.66766
5685.94,0.66792
5680.15,0.67273
5674.37,0.67480
5668.58,0.67708
5662.8,0.67864
5657.01,0.67639
5651.22,0.67894
5645.44,0.67798
5639.65,0.68433
5633.87,0.68941
5628.08,0.69592
5622.29,0.70148
5616.51,0.70533
5610.72,0.70963
5604.93,0.71066
5599.15,0.71103
5593.36,0.70893
5587.58,0.70737
5581.79,0.70554
5576,0.70219
5570.22,0.69661
5564.43,0.69230
5558.64,0.69337
5552.86,0.69401
5547.07,0.69311
5541.29,0.69374
5535.5,0.69619
5529.71,0.69565
5523.93,0.69672
5518.14,0.70076
5512.35,0.70269
5506.57,0.70752
5500.78,0.71032
5495,0.70927
5489.21,0.70635
5483.42,0.70282
5477.64,0.69976
5471.85,0.70036
5466.06,0.70129
5460.28,0.70393
5454.49,0.71139
5448.71,0.71585
5442.92,0.71828
5437.13,0.72296
5431.35,0.72837
5425.56,0.72737
5419.77,0.72873
5413.99,0.73012
5408.2,0.73078
5402.42,0.72886
5396.63,0.73048
5390.84,0.73158
5385.06,0.72960
5379.27,0.73146
5373.48,0.72836
5367.7,0.73149
5361.91,0.72864
5356.13,0.72823
5350.34,0.72544
5344.55,0.72535
5338.77,0.72732
5332.98,0.73029
5327.19,0.73408
5321.41,0.73567
5315.62,0.73580
5309.84,0.73509
5304.05,0.73632
5298.26,0.73281
5292.48,0.73240
5286.69,0.73124
5280.9,0.72799
5275.12,0.72404
5269.33,0.72248
5263.55,0.72021
5257.76,0.71970
5251.97,0.71830
5246.19,0.72355
5240.4,0.72509
5234.61,0.72751
5228.83,0.72765
5223.04,0.72668
5217.26,0.72407
5211.47,0.72507
5205.68,0.72712
5199.9,0.72597
5194.11,0.72647
5188.32,0.72498
5182.54,0.72395
5176.75,0.72109
5170.97,0.72037
5165.18,0.72076
5159.39,0.71945
5153.61,0.71693
5147.82,0.71280
5142.03,0.70775
5136.25,0.70318
5130.46,0.69620
5124.68,0.68995
5118.89,0.68304
5113.1,0.68186
5107.32,0.68101
5101.53,0.67929
5095.75,0.67731
5089.96,0.67812
5084.17,0.68741
5078.39,0.69919
5072.6,0.70859
5066.81,0.71769
5061.03,0.72268
5055.24,0.72789
5049.46,0.72907
5043.67,0.72983
5037.88,0.72936
5032.1,0.72852
5026.31,0.72688
5020.52,0.72503
5014.74,0.72526
5008.95,0.72617
5003.17,0.72692
4997.38,0.72719
4991.59,0.72752
4985.81,0.72718
4980.02,0.72801
4974.23,0.73051
4968.45,0.73135
4962.66,0.73078
4956.88,0.72810
4951.09,0.72554
4945.3,0.72260
4939.52,0.72129
4933.73,0.71905
4927.94,0.71861
4922.16,0.71963
4916.37,0.71728
4910.59,0.71749
4904.8,0.71465
4899.01,0.71353
4893.23,0.71352
4887.44,0.71267
4881.65,0.71109
4875.87,0.70844
4870.08,0.70496
4864.3,0.70532
4858.51,0.70281
4852.72,0.70099
4846.94,0.69904
4841.15,0.69281
4835.36,0.68421
4829.58,0.67213
4823.79,0.66076
4818.01,0.64894
4812.22,0.64231
4806.43,0.63655
4800.65,0.62850
4794.86,0.62727
4789.07,0.62895
4783.29,0.63274
4777.5,0.64009
4771.72,0.64610
4765.93,0.65193
4760.14,0.65196
4754.36,0.64589
4748.57,0.63299
4742.78,0.61876
4737,0.60223
4731.21,0.57606
4725.43,0.53937
4719.64,0.51173
4713.85,0.50482
4708.07,0.49927
4702.28,0.47904
4696.49,0.44794
4690.71,0.42562
4684.92,0.42650
4679.14,0.44778
4673.35,0.47819
4667.56,0.50295
4661.78,0.51430
4655.99,0.51797
4650.2,0.51257
4644.42,0.49093
4638.63,0.46829
4632.85,0.46372
4627.06,0.48352
4621.27,0.51782
4615.49,0.54772
4609.7,0.56810
4603.92,0.57573
4598.13,0.56589
4592.34,0.54346
4586.56,0.53019
4580.77,0.51392
4574.98,0.51688
4569.2,0.55220
4563.41,0.58675
4557.63,0.60497
4551.84,0.60568
4546.05,0.60465
4540.27,0.60475
4534.48,0.60336
4528.69,0.59834
4522.91,0.59071
4517.12,0.58291
4511.34,0.57013
4505.55,0.55034
4499.76,0.52104
4493.98,0.48510
4488.19,0.46613
4482.4,0.46148
4476.62,0.45623
4470.83,0.44641
4465.05,0.42695
4459.26,0.40324
4453.47,0.38475
4447.69,0.36681
4441.9,0.34531
4436.11,0.32657
4430.33,0.31546
4424.54,0.31108
4418.76,0.32034
4412.97,0.33569
4407.18,0.34157
4401.4,0.34496
4395.61,0.35715
4389.82,0.36671
4384.04,0.36782
4378.25,0.36079
4372.47,0.34830
4366.68,0.33933
4360.89,0.33781
4355.11,0.33951
4349.32,0.34394
4343.53,0.35011
4337.75,0.35510
4331.96,0.35949
4326.18,0.36475
4320.39,0.36993
4314.6,0.37586
4308.82,0.37687
4303.03,0.37152
4297.24,0.36239
4291.46,0.35554
4285.67,0.35234
4279.89,0.34912
4274.1,0.34197
4268.31,0.33811
4262.53,0.34174
4256.74,0.34772
4250.95,0.35271
4245.17,0.35462
4239.38,0.35575
4233.6,0.35339
4227.81,0.34779
4222.02,0.34673
4216.24,0.34725
4210.45,0.34641
4204.66,0.34770
4198.88,0.35417
4193.09,0.35931
4187.31,0.35932
4181.52,0.34857
4175.73,0.34438
4169.95,0.35843
4164.16,0.37859
4158.37,0.39435
4152.59,0.40483
4146.8,0.41281
4141.02,0.41538
4135.23,0.40992
4129.44,0.40142
4123.66,0.39075
4117.87,0.37744
4112.09,0.35929
4106.3,0.33522
4100.51,0.30548
4094.73,0.26631
4088.94,0.24464
4083.15,0.26079
4077.37,0.28964
4071.58,0.31745
4065.8,0.33666
4060.01,0.35075
4054.22,0.35879
4048.44,0.36607
4042.65,0.37642
4036.86,0.38435
4031.08,0.38677
4025.29,0.38833
4019.51,0.39395
4013.72,0.39840
4007.93,0.40352
4002.15,0.41368
3996.36,0.42577
3990.57,0.43439
3984.79,0.44054
3979,0.44470
3973.22,0.44672
3967.43,0.44766
3961.64,0.44434
3955.86,0.43868
3950.07,0.43220
3944.28,0.42425
3938.5,0.41963
3932.71,0.41752
3926.93,0.41486
3921.14,0.41333
3915.35,0.41637
3909.57,0.42195
3903.78,0.43145
3897.99,0.43892
3892.21,0.44516
3886.42,0.45431
3880.64,0.46448
3874.85,0.47170
3869.06,0.47660
3863.28,0.48104
3857.49,0.48359
3851.7,0.48802
3845.92,0.49337
3840.13,0.49464
3834.35,0.48986
3828.56,0.48899
3822.77,0.49100
3816.99,0.48459
3811.2,0.47212
3805.41,0.46711
3799.63,0.48439
3793.84,0.50424
3788.06,0.51539
3782.27,0.51676
3776.48,0.50944
3770.7,0.49793
3764.91,0.48496
3759.12,0.47125
3753.34,0.47633
3747.55,0.50314
3741.77,0.51145
3735.98,0.49739
3730.19,0.49160
3724.41,0.50892
3718.62,0.51809
3712.83,0.51408
3707.05,0.50192
3701.26,0.48190
3695.48,0.45195
3689.69,0.41381
3683.9,0.41616
3678.12,0.46118
3672.33,0.50420
3666.54,0.52190
3660.76,0.52568
3654.97,0.52185
3649.19,0.51368
3643.4,0.50240
3637.61,0.49208
3631.83,0.48324
3626.04,0.47282
3620.25,0.46161
3614.47,0.44819
3608.68,0.43610
3602.9,0.42092
3597.11,0.40196
3591.32,0.38025
3585.54,0.35666
3579.75,0.33360
3573.97,0.31281
3568.18,0.29638
3562.39,0.28357
3556.61,0.27515
3550.82,0.27089
3545.03,0.26943
3539.25,0.27139
3533.46,0.27699
3527.68,0.28322
3521.89,0.29232
3516.1,0.30210
3510.32,0.31082
3504.53,0.31963
3498.74,0.32539
3492.96,0.32977
3487.17,0.33169
3481.39,0.33158
3475.6,0.32674
3469.81,0.31759
3464.03,0.30301
3458.24,0.28463
3452.45,0.26099
3446.67,0.23328
3440.88,0.20632
3435.1,0.18210
3429.31,0.16848
3423.52,0.16658
3417.74,0.16802
3411.95,0.17118
3406.16,0.19867
3400.38,0.24733
3394.59,0.28707
3388.81,0.31097
3383.02,0.32501
3377.23,0.33495
3371.45,0.34017
3365.66,0.34028
3359.87,0.33662
3354.09,0.32955
3348.3,0.31738
3342.52,0.30396
3336.73,0.29061
3330.94,0.28295
3325.16,0.28760
3319.37,0.30472
3313.58,0.31586
3307.8,0.31855
3302.01,0.31367
3296.23,0.30700
3290.44,0.30511
3284.65,0.31208
3278.87,0.32117
3273.08,0.32674
3267.29,0.32902
3261.51,0.32928
3255.72,0.32809
3249.94,0.32633
3244.15,0.32255
3238.36,0.31820
3232.58,0.31409
3226.79,0.31062
3221,0.31007
3215.22,0.31568
3209.43,0.32032
3203.65,0.32087
3197.86,0.31698
3192.07,0.31254
3186.29,0.30981
3180.5,0.30721
3174.71,0.30417
3168.93,0.30079
3163.14,0.29664
3157.36,0.29074
3151.57,0.28392
3145.78,0.27573
3140,0.26435
3134.21,0.24815
3128.42,0.23104
3122.64,0.23171
3116.85,0.23205
3111.07,0.21687
3105.28,0.19716
3099.49,0.19159
3093.71,0.19814
3087.92,0.18483
3082.14,0.16778
3076.35,0.16444
3070.56,0.15975
3064.78,0.15713
3058.99,0.15504
3053.2,0.15438
3047.42,0.18584
3041.63,0.21574
3035.85,0.21864
3030.06,0.20636
3024.27,0.18579
3018.49,0.15868
3012.7,0.13135
3006.91,0.10756
3001.13,0.08610
2995.34,0.06683
2989.56,0.04916
2983.77,0.03788
2977.98,0.03464
2972.2,0.03303
2966.41,0.03423
2960.62,0.03604
2954.84,0.04280
2949.05,0.05442
2943.27,0.06733
2937.48,0.07517
2931.69,0.07834
2925.91,0.07896
2920.12,0.07722
2914.33,0.07333
2908.55,0.05828
2902.76,0.05097
2896.98,0.06499
2891.19,0.08213
2885.4,0.09575
2879.62,0.10598
2873.83,0.11225
2868.04,0.11618
2862.26,0.11853
2856.47,0.12209
2850.69,0.13219
2844.9,0.15533
2839.11,0.17431
2833.33,0.18831
2827.54,0.20456
2821.75,0.22614
2815.97,0.24000
2810.18,0.24361
2804.4,0.24630
2798.61,0.25618
2792.82,0.26319
2787.04,0.26505
2781.25,0.26591
2775.46,0.26759
2769.68,0.27126
2763.89,0.28375
2758.11,0.29611
2752.32,0.30357
2746.53,0.30420
2740.75,0.30409
2734.96,0.31527
2729.17,0.33135
2723.39,0.34306
2717.6,0.34535
2711.82,0.34502
2706.03,0.35456
2700.24,0.36343
2694.46,0.36763
2688.67,0.36865
2682.88,0.36726
2677.1,0.36807
2671.31,0.36654
2665.53,0.36344
2659.74,0.36164
2653.95,0.35555
2648.17,0.34708
2642.38,0.33756
2636.59,0.32485
2630.81,0.31301
2625.02,0.31490
2619.24,0.32168
2613.45,0.32825
2607.66,0.33154
2601.88,0.32993
2596.09,0.32343
2590.3,0.31126
2584.52,0.29749
2578.73,0.29056
2572.95,0.29286
2567.16,0.29468
2561.37,0.29122
2555.59,0.28566
2549.8,0.28080
2544.02,0.27801
2538.23,0.27707
2532.44,0.28032
2526.66,0.28817
2520.87,0.29832
2515.08,0.30650
2509.3,0.31614
2503.51,0.32579
2497.73,0.33104
2491.94,0.33427
2486.15,0.33680
2480.37,0.34489
2474.58,0.35542
2468.79,0.36236
2463.01,0.36364
2457.22,0.36288
2451.44,0.35951
2445.65,0.35388
2439.86,0.33927
2434.08,0.31699
2428.29,0.29832
2422.5,0.28229
2416.72,0.26473
2410.93,0.25082
2405.15,0.24046
2399.36,0.23061
2393.57,0.22321
2387.79,0.21965
2382,0.21940
2376.21,0.22138
2370.43,0.22854
2364.64,0.24395
2358.86,0.26462
2353.07,0.28658
2347.28,0.30582
2341.5,0.32258
2335.71,0.33409
2329.92,0.33652
2324.14,0.33426
2318.35,0.34958
2312.57,0.35932
2306.78,0.35500
2300.99,0.34235
2295.21,0.32178
2289.42,0.29782
2283.63,0.28522
2277.85,0.29064
2272.06,0.30221
2266.28,0.30586
2260.49,0.30216
2254.7,0.29419
2248.92,0.28330
2243.13,0.27749
2237.34,0.27620
2231.56,0.27414
2225.77,0.27444
2219.99,0.27519
2214.2,0.27261
2208.41,0.27166
2202.63,0.28235
2196.84,0.28964
2191.05,0.29375
2185.27,0.30195
2179.48,0.30953
2173.7,0.30988
2167.91,0.30410
2162.12,0.29555
2156.34,0.28588
2150.55,0.27772
2144.76,0.27239
2138.98,0.26778
2133.19,0.26417
2127.41,0.26046
2121.62,0.25484
2115.83,0.25017
2110.05,0.24875
2104.26,0.24877
2098.47,0.24819
2092.69,0.24981
2086.9,0.25346
2081.12,0.25758
2075.33,0.26215
2069.54,0.26308
2063.76,0.26093
2057.97,0.26220
2052.19,0.26952
2046.4,0.27604
2040.61,0.27320
2034.83,0.26368
2029.04,0.25818
2023.25,0.26105
2017.47,0.26001
2011.68,0.26074
2005.9,0.26302
2000.11,0.25651
1994.32,0.24564
1988.54,0.23734
1982.75,0.23357
1976.96,0.22249
1971.18,0.20476
1965.39,0.18049
1959.61,0.15296
1953.82,0.13369
1948.03,0.14136
1942.25,0.17009
1936.46,0.19759
1930.67,0.22081
1924.89,0.23994
1919.1,0.25350
1913.32,0.26034
1907.53,0.26011
1901.74,0.25347
1895.96,0.24615
1890.17,0.23903
1884.38,0.23077
1878.6,0.23070
1872.81,0.22932
1867.03,0.21859
1861.24,0.20769
1855.45,0.19638
1849.67,0.17881
1843.88,0.15606
1838.09,0.13616
1832.31,0.12027
1826.52,0.10871
1820.74,0.10569
1814.95,0.10554
1809.16,0.10194
1803.38,0.09781
1797.59,0.09378
1791.8,0.08948
1786.02,0.08308
1780.23,0.07574
1774.45,0.06789
1768.66,0.05952
1762.87,0.04909
1757.09,0.03776
1751.3,0.02742
1745.51,0.01930
1739.73,0.01587
1733.94,0.01651
1728.16,0.02115
1722.37,0.02819
1716.58,0.03311
1710.8,0.03157
1705.01,0.02880
1699.22,0.03176
1693.44,0.03722
1687.65,0.04237
1681.87,0.04535
1676.08,0.04650
1670.29,0.05509
1664.51,0.07445
1658.72,0.08998
1652.93,0.09977
1647.15,0.10628
1641.36,0.11162
1635.58,0.11755
1629.79,0.12340
1624,0.12512
1618.22,0.11206
1612.43,0.09999
1606.64,0.11793
1600.86,0.13709
1595.07,0.13946
1589.29,0.12616
1583.5,0.09198
1577.71,0.06536
1571.93,0.09075
1566.14,0.12006
1560.35,0.13119
1554.57,0.13261
1548.78,0.13579
1543,0.13296
1537.21,0.11952
1531.42,0.09860
1525.64,0.09335
1519.85,0.09447
1514.07,0.07860
1508.28,0.04278
1502.49,0.03650
1496.71,0.08335
1490.92,0.10148
1485.13,0.07890
1479.35,0.05003
1473.56,0.03084
1467.78,0.02573
1461.99,0.02704
1456.2,0.03276
1450.42,0.03927
1444.63,0.04894
1438.84,0.05228
1433.06,0.05021
1427.27,0.03940
1421.49,0.02795
1415.7,0.02064
1409.91,0.01849
1404.13,0.02175
1398.34,0.02521
1392.55,0.02339
1386.77,0.02304
1380.98,0.02470
1375.2,0.02720
1369.41,0.02937
1363.62,0.02745
1357.84,0.02420
1352.05,0.02880
1346.26,0.03130
1340.48,0.02779
1334.69,0.02280
1328.91,0.01998
1323.12,0.01811
1317.33,0.01633
1311.55,0.01522
1305.76,0.01405
1299.97,0.01522
1294.19,0.01720
1288.4,0.02101
1282.62,0.02789
1276.83,0.03589
1271.04,0.03955
1265.26,0.03879
1259.47,0.03630
1253.68,0.03574
1247.9,0.03762
1242.11,0.03619
1236.33,0.03372
1230.54,0.03430
1224.75,0.03593
1218.97,0.04180
1213.18,0.05322
1207.39,0.05906
1201.61,0.06519
1195.82,0.07570
1190.04,0.07947
1184.25,0.07027
1178.46,0.05287
1172.68,0.04503
1166.89,0.04741
1161.1,0.04288
1155.32,0.03367
1149.53,0.02432
1143.75,0.01876
1137.96,0.01736
1132.17,0.02015
1126.39,0.02693
1120.6,0.02727
1114.81,0.02492
1109.03,0.02569
1103.24,0.02961
1097.46,0.02976
1091.67,0.02887
1085.88,0.02918
1080.1,0.03375
1074.31,0.04813
1068.52,0.06092
1062.74,0.06571
1056.95,0.05868
1051.17,0.04090
1045.38,0.02965
1039.59,0.03079
1033.81,0.03304
1028.02,0.02945
1022.24,0.02600
1016.45,0.03207
1010.66,0.06514
1004.88,0.10569
999.09,0.12027
993.304,0.11603
987.518,0.09916
981.731,0.08162
975.945,0.07039
970.159,0.07500
964.373,0.08823
958.586,0.08614
952.8,0.06684
947.014,0.06079
941.228,0.06199
935.441,0.06023
929.655,0.06978
923.869,0.08660
918.083,0.09569
912.297,0.09315
906.51,0.08672
900.724,0.09347
894.938,0.10264
889.152,0.10288
883.365,0.07730
877.579,0.04291
871.793,0.03531
866.007,0.07657
860.22,0.08623
854.434,0.07183
848.648,0.06871
842.862,0.07686
837.075,0.09555
831.289,0.10733
825.503,0.10680
819.717,0.10672
813.931,0.10930
808.144,0.11127
802.358,0.11597
796.572,0.08534
790.786,0.10316
784.999,0.13285
779.213,0.12928
773.427,0.11960
767.641,0.12625
761.854,0.12706
756.068,0.11989
750.282,0.10253
744.496,0.06346
738.709,0.02404
732.923,0.02086
727.137,0.03096
721.351,0.04157
715.565,0.08589
709.778,0.10844
703.992,0.11629
698.206,0.16006
692.42,0.18714
686.633,0.18723
680.847,0.17313
675.061,0.18991
669.275,0.20181
663.488,0.21018
657.702,0.21304
651.916,0.21697
646.13,0.22003
640.343,0.22072
634.557,0.19088
628.771,0.20532
622.985,0.23041
617.198,0.23759
611.412,0.23886
605.626,0.23990
599.84,0.24013