File: 01_Data/Triexta_Carpet_High_Pile/FTIR/IS/Triexta_Carpet_High_Pile_IS_S_221121_R1.dpt
7497.03,0.83053
7491.25,0.83057
7485.46,0.84625
7479.67,0.84349
7473.89,0.85246
7468.1,0.85420
7462.32,0.83836
7456.53,0.82010
7450.74,0.84700
7444.96,0.83622
7439.17,0.83643
7433.38,0.83602
7427.6,0.82786
7421.81,0.83639
7416.03,0.82265
7410.24,0.82988
7404.45,0.82265
7398.67,0.81235
7392.88,0.81499
7387.09,0.81640
7381.31,0.81510
7375.52,0.81002
7369.74,0.80977
7363.95,0.80384
7358.16,0.80544
7352.38,0.81900
7346.59,0.80380
7340.8,0.80441
7335.02,0.78461
7329.23,0.78927
7323.45,0.79370
7317.66,0.79158
7311.87,0.78830
7306.09,0.79561
7300.3,0.80055
7294.51,0.79553
7288.73,0.79566
7282.94,0.80047
7277.16,0.79921
7271.37,0.79769
7265.58,0.78503
7259.8,0.79565
7254.01,0.77997
7248.22,0.78671
7242.44,0.79557
7236.65,0.78750
7230.87,0.78151
7225.08,0.78184
7219.29,0.78150
7213.51,0.77984
7207.72,0.78785
7201.93,0.77485
7196.15,0.77822
7190.36,0.78663
7184.58,0.78965
7178.79,0.78521
7173,0.78209
7167.22,0.77718
7161.43,0.78230
7155.65,0.78359
7149.86,0.77760
7144.07,0.78642
7138.29,0.78220
7132.5,0.78458
7126.71,0.78762
7120.93,0.78017
7115.14,0.78662
7109.36,0.79272
7103.57,0.77427
7097.78,0.78801
7092,0.79213
7086.21,0.78347
7080.42,0.78396
7074.64,0.78686
7068.85,0.78061
7063.07,0.78400
7057.28,0.77873
7051.49,0.78276
7045.71,0.77730
7039.92,0.78005
7034.13,0.77679
7028.35,0.78391
7022.56,0.77669
7016.78,0.77773
7010.99,0.78268
7005.2,0.77944
6999.42,0.78228
6993.63,0.77999
6987.84,0.78399
6982.06,0.78425
6976.27,0.78685
6970.49,0.79677
6964.7,0.79475
6958.91,0.79762
6953.13,0.80398
6947.34,0.80273
6941.55,0.79711
6935.77,0.80262
6929.98,0.80437
6924.2,0.80193
6918.41,0.79766
6912.62,0.80510
6906.84,0.80507
6901.05,0.80618
6895.26,0.80922
6889.48,0.80706
6883.69,0.80598
6877.91,0.80124
6872.12,0.81004
6866.33,0.81035
6860.55,0.81210
6854.76,0.80973
6848.97,0.80907
6843.19,0.80846
6837.4,0.81081
6831.62,0.81484
6825.83,0.81617
6820.04,0.81945
6814.26,0.82338
6808.47,0.82282
6802.68,0.82037
6796.9,0.82051
6791.11,0.81732
6785.33,0.82569
6779.54,0.82449
6773.75,0.82685
6767.97,0.82094
6762.18,0.81883
6756.39,0.82320
6750.61,0.82437
6744.82,0.82360
6739.04,0.82662
6733.25,0.82932
6727.46,0.83064
6721.68,0.83357
6715.89,0.83180
6710.1,0.83331
6704.32,0.83790
6698.53,0.83203
6692.75,0.83258
6686.96,0.83251
6681.17,0.82946
6675.39,0.82947
6669.6,0.83386
6663.82,0.83295
6658.03,0.83587
6652.24,0.83755
6646.46,0.83791
6640.67,0.83518
6634.88,0.83771
6629.1,0.83797
6623.31,0.83849
6617.53,0.83710
6611.74,0.83756
6605.95,0.84190
6600.17,0.84571
6594.38,0.84054
6588.59,0.84464
6582.81,0.83958
6577.02,0.83751
6571.24,0.84177
6565.45,0.84167
6559.66,0.83785
6553.88,0.84242
6548.09,0.84670
6542.3,0.84352
6536.52,0.84562
6530.73,0.84525
6524.95,0.84161
6519.16,0.83739
6513.37,0.84414
6507.59,0.84106
6501.8,0.84379
6496.01,0.84084
6490.23,0.83971
6484.44,0.84428
6478.66,0.84461
6472.87,0.84213
6467.08,0.84153
6461.3,0.84292
6455.51,0.84223
6449.72,0.83718
6443.94,0.84134
6438.15,0.84063
6432.37,0.83824
6426.58,0.83868
6420.79,0.83921
6415.01,0.83870
6409.22,0.84285
6403.43,0.84034
6397.65,0.83642
6391.86,0.83604
6386.08,0.83717
6380.29,0.84181
6374.5,0.84373
6368.72,0.83700
6362.93,0.83535
6357.14,0.84125
6351.36,0.84290
6345.57,0.84319
6339.79,0.83703
6334,0.83192
6328.21,0.82987
6322.43,0.83689
6316.64,0.83427
6310.85,0.83497
6305.07,0.83906
6299.28,0.83443
6293.5,0.83339
6287.71,0.83659
6281.92,0.83494
6276.14,0.83113
6270.35,0.83128
6264.56,0.82997
6258.78,0.82954
6252.99,0.82536
6247.21,0.82276
6241.42,0.82379
6235.63,0.82283
6229.85,0.81772
6224.06,0.81569
6218.27,0.81498
6212.49,0.80871
6206.7,0.79527
6200.92,0.78127
6195.13,0.77485
6189.34,0.77498
6183.56,0.77651
6177.77,0.78002
6171.98,0.78125
6166.2,0.78138
6160.41,0.77558
6154.63,0.76756
6148.84,0.76198
6143.05,0.75722
6137.27,0.75326
6131.48,0.75371
6125.7,0.75097
6119.91,0.74161
6114.12,0.72590
6108.34,0.70407
6102.55,0.67957
6096.76,0.65757
6090.98,0.63460
6085.19,0.62063
6079.41,0.60699
6073.62,0.58820
6067.83,0.55926
6062.05,0.53149
6056.26,0.51529
6050.47,0.50318
6044.69,0.49086
6038.9,0.48141
6033.12,0.47496
6027.33,0.46742
6021.54,0.46548
6015.76,0.47121
6009.97,0.48487
6004.18,0.49939
5998.4,0.52231
5992.61,0.54115
5986.83,0.56034
5981.04,0.56457
5975.25,0.57232
5969.47,0.57552
5963.68,0.58081
5957.89,0.57734
5952.11,0.56719
5946.32,0.55963
5940.54,0.55827
5934.75,0.56409
5928.96,0.57665
5923.18,0.58824
5917.39,0.60113
5911.6,0.60909
5905.82,0.61067
5900.03,0.60831
5894.25,0.61135
5888.46,0.61296
5882.67,0.61790
5876.89,0.62054
5871.1,0.62193
5865.31,0.63100
5859.53,0.63430
5853.74,0.63822
5847.96,0.63495
5842.17,0.63276
5836.38,0.62514
5830.6,0.61709
5824.81,0.60626
5819.02,0.59478
5813.24,0.58290
5807.45,0.57943
5801.67,0.57580
5795.88,0.57142
5790.09,0.57778
5784.31,0.58984
5778.52,0.60099
5772.73,0.61427
5766.95,0.61659
5761.16,0.61936
5755.38,0.62104
5749.59,0.62290
5743.8,0.62630
5738.02,0.63183
5732.23,0.63619
5726.44,0.63989
5720.66,0.64512
5714.87,0.64953
5709.09,0.65489
5703.3,0.65623
5697.51,0.66298
5691.73,0.66434
5685.94,0.66843
5680.15,0.66985
5674.37,0.67263
5668.58,0.67811
5662.8,0.67388
5657.01,0.67319
5651.22,0.67414
5645.44,0.67660
5639.65,0.68230
5633.87,0.68778
5628.08,0.69367
5622.29,0.69677
5616.51,0.70314
5610.72,0.70561
5604.93,0.70923
5599.15,0.70872
5593.36,0.70856
5587.58,0.70582
5581.79,0.69862
5576,0.69825
5570.22,0.69623
5564.43,0.69497
5558.64,0.69047
5552.86,0.68952
5547.07,0.68968
5541.29,0.69069
5535.5,0.69489
5529.71,0.69679
5523.93,0.69788
5518.14,0.70012
5512.35,0.70265
5506.57,0.70624
5500.78,0.70708
5495,0.70697
5489.21,0.70481
5483.42,0.70182
5477.64,0.69874
5471.85,0.69946
5466.06,0.70008
5460.28,0.70427
5454.49,0.70806
5448.71,0.71473
5442.92,0.71765
5437.13,0.72303
5431.35,0.72549
5425.56,0.72843
5419.77,0.72805
5413.99,0.72768
5408.2,0.72858
5402.42,0.72768
5396.63,0.72794
5390.84,0.72951
5385.06,0.72909
5379.27,0.72721
5373.48,0.72731
5367.7,0.72762
5361.91,0.72597
5356.13,0.72296
5350.34,0.72603
5344.55,0.72471
5338.77,0.72773
5332.98,0.72817
5327.19,0.73011
5321.41,0.73318
5315.62,0.73437
5309.84,0.73540
5304.05,0.73216
5298.26,0.73245
5292.48,0.72954
5286.69,0.72586
5280.9,0.72433
5275.12,0.72134
5269.33,0.71755
5263.55,0.71650
5257.76,0.71519
5251.97,0.71596
5246.19,0.71910
5240.4,0.72207
5234.61,0.72475
5228.83,0.72433
5223.04,0.72440
5217.26,0.72286
5211.47,0.72238
5205.68,0.72325
5199.9,0.72375
5194.11,0.72208
5188.32,0.72232
5182.54,0.72125
5176.75,0.71814
5170.97,0.71746
5165.18,0.71662
5159.39,0.71626
5153.61,0.71371
5147.82,0.70926
5142.03,0.70640
5136.25,0.69980
5130.46,0.69475
5124.68,0.68691
5118.89,0.68066
5113.1,0.67821
5107.32,0.67812
5101.53,0.67674
5095.75,0.67571
5089.96,0.67689
5084.17,0.68596
5078.39,0.69750
5072.6,0.70794
5066.81,0.71427
5061.03,0.72155
5055.24,0.72401
5049.46,0.72732
5043.67,0.72663
5037.88,0.72431
5032.1,0.72487
5026.31,0.72340
5020.52,0.72368
5014.74,0.72391
5008.95,0.72365
5003.17,0.72369
4997.38,0.72337
4991.59,0.72336
4985.81,0.72494
4980.02,0.72484
4974.23,0.72854
4968.45,0.72860
4962.66,0.72715
4956.88,0.72728
4951.09,0.72249
4945.3,0.71961
4939.52,0.71774
4933.73,0.71716
4927.94,0.71833
4922.16,0.71783
4916.37,0.71622
4910.59,0.71521
4904.8,0.71298
4899.01,0.71192
4893.23,0.71000
4887.44,0.70988
4881.65,0.70805
4875.87,0.70605
4870.08,0.70375
4864.3,0.70239
4858.51,0.70055
4852.72,0.69942
4846.94,0.69719
4841.15,0.69040
4835.36,0.67976
4829.58,0.67040
4823.79,0.65779
4818.01,0.64535
4812.22,0.63989
4806.43,0.63383
4800.65,0.62717
4794.86,0.62389
4789.07,0.62610
4783.29,0.63148
4777.5,0.63810
4771.72,0.64456
4765.93,0.64928
4760.14,0.64970
4754.36,0.64354
4748.57,0.63131
4742.78,0.61746
4737,0.59918
4731.21,0.57457
4725.43,0.53875
4719.64,0.50973
4713.85,0.50302
4708.07,0.49890
4702.28,0.47780
4696.49,0.44700
4690.71,0.42433
4684.92,0.42477
4679.14,0.44634
4673.35,0.47638
4667.56,0.50185
4661.78,0.51310
4655.99,0.51602
4650.2,0.50976
4644.42,0.48963
4638.63,0.46774
4632.85,0.46270
4627.06,0.48178
4621.27,0.51551
4615.49,0.54617
4609.7,0.56508
4603.92,0.57250
4598.13,0.56271
4592.34,0.54074
4586.56,0.52871
4580.77,0.51291
4574.98,0.51530
4569.2,0.55195
4563.41,0.58575
4557.63,0.60160
4551.84,0.60578
4546.05,0.60434
4540.27,0.60208
4534.48,0.59935
4528.69,0.59549
4522.91,0.59021
4517.12,0.58098
4511.34,0.56732
4505.55,0.54875
4499.76,0.52031
4493.98,0.48365
4488.19,0.46378
4482.4,0.45987
4476.62,0.45540
4470.83,0.44428
4465.05,0.42484
4459.26,0.40255
4453.47,0.38410
4447.69,0.36540
4441.9,0.34357
4436.11,0.32607
4430.33,0.31453
4424.54,0.30875
4418.76,0.31956
4412.97,0.33427
4407.18,0.33958
4401.4,0.34433
4395.61,0.35617
4389.82,0.36588
4384.04,0.36699
4378.25,0.35938
4372.47,0.34712
4366.68,0.33779
4360.89,0.33579
4355.11,0.33819
4349.32,0.34261
4343.53,0.34964
4337.75,0.35393
4331.96,0.35816
4326.18,0.36403
4320.39,0.36945
4314.6,0.37488
4308.82,0.37600
4303.03,0.36934
4297.24,0.35985
4291.46,0.35340
4285.67,0.35165
4279.89,0.34829
4274.1,0.34159
4268.31,0.33666
4262.53,0.34054
4256.74,0.34668
4250.95,0.35121
4245.17,0.35395
4239.38,0.35422
4233.6,0.35210
4227.81,0.34784
4222.02,0.34494
4216.24,0.34553
4210.45,0.34612
4204.66,0.34713
4198.88,0.35256
4193.09,0.35838
4187.31,0.35795
4181.52,0.34752
4175.73,0.34275
4169.95,0.35701
4164.16,0.37776
4158.37,0.39352
4152.59,0.40436
4146.8,0.41147
4141.02,0.41322
4135.23,0.40760
4129.44,0.39959
4123.66,0.38888
4117.87,0.37622
4112.09,0.35839
4106.3,0.33401
4100.51,0.30499
4094.73,0.26563
4088.94,0.24381
4083.15,0.25959
4077.37,0.28896
4071.58,0.31560
4065.8,0.33543
4060.01,0.34913
4054.22,0.35736
4048.44,0.36484
4042.65,0.37458
4036.86,0.38346
4031.08,0.38511
4025.29,0.38638
4019.51,0.39284
4013.72,0.39703
4007.93,0.40200
4002.15,0.41295
3996.36,0.42372
3990.57,0.43255
3984.79,0.43847
3979,0.44270
3973.22,0.44589
3967.43,0.44662
3961.64,0.44216
3955.86,0.43689
3950.07,0.43005
3944.28,0.42238
3938.5,0.41824
3932.71,0.41515
3926.93,0.41340
3921.14,0.41155
3915.35,0.41498
3909.57,0.42112
3903.78,0.43085
3897.99,0.43754
3892.21,0.44382
3886.42,0.45272
3880.64,0.46239
3874.85,0.46957
3869.06,0.47587
3863.28,0.48011
3857.49,0.48227
3851.7,0.48655
3845.92,0.49156
3840.13,0.49272
3834.35,0.48821
3828.56,0.48684
3822.77,0.49009
3816.99,0.48300
3811.2,0.46950
3805.41,0.46442
3799.63,0.48235
3793.84,0.50206
3788.06,0.51333
3782.27,0.51483
3776.48,0.50715
3770.7,0.49578
3764.91,0.48282
3759.12,0.46947
3753.34,0.47504
3747.55,0.50112
3741.77,0.50860
3735.98,0.49589
3730.19,0.48946
3724.41,0.50710
3718.62,0.51583
3712.83,0.51167
3707.05,0.49889
3701.26,0.47916
3695.48,0.44919
3689.69,0.41147
3683.9,0.41367
3678.12,0.45652
3672.33,0.49678
3666.54,0.51283
3660.76,0.51575
3654.97,0.51091
3649.19,0.50209
3643.4,0.49046
3637.61,0.47945
3631.83,0.47108
3626.04,0.46166
3620.25,0.45051
3614.47,0.43923
3608.68,0.42711
3602.9,0.41330
3597.11,0.39529
3591.32,0.37391
3585.54,0.35143
3579.75,0.32849
3573.97,0.30809
3568.18,0.29173
3562.39,0.27907
3556.61,0.27088
3550.82,0.26653
3545.03,0.26564
3539.25,0.26782
3533.46,0.27294
3527.68,0.27928
3521.89,0.28842
3516.1,0.29716
3510.32,0.30604
3504.53,0.31397
3498.74,0.32069
3492.96,0.32520
3487.17,0.32720
3481.39,0.32691
3475.6,0.32183
3469.81,0.31379
3464.03,0.29952
3458.24,0.28002
3452.45,0.25705
3446.67,0.22984
3440.88,0.20378
3435.1,0.18002
3429.31,0.16649
3423.52,0.16531
3417.74,0.16567
3411.95,0.16815
3406.16,0.19573
3400.38,0.24472
3394.59,0.28278
3388.81,0.30541
3383.02,0.31997
3377.23,0.32869
3371.45,0.33320
3365.66,0.33418
3359.87,0.33059
3354.09,0.32313
3348.3,0.31194
3342.52,0.29909
3336.73,0.28593
3330.94,0.27755
3325.16,0.28273
3319.37,0.30006
3313.58,0.31131
3307.8,0.31294
3302.01,0.30857
3296.23,0.30183
3290.44,0.30022
3284.65,0.30600
3278.87,0.31560
3273.08,0.32121
3267.29,0.32354
3261.51,0.32345
3255.72,0.32240
3249.94,0.32014
3244.15,0.31732
3238.36,0.31283
3232.58,0.30890
3226.79,0.30461
3221,0.30460
3215.22,0.31090
3209.43,0.31619
3203.65,0.31635
3197.86,0.31271
3192.07,0.30799
3186.29,0.30515
3180.5,0.30293
3174.71,0.30009
3168.93,0.29716
3163.14,0.29340
3157.36,0.28796
3151.57,0.28068
3145.78,0.27272
3140,0.26210
3134.21,0.24596
3128.42,0.22946
3122.64,0.22925
3116.85,0.22984
3111.07,0.21488
3105.28,0.19569
3099.49,0.19078
3093.71,0.19701
3087.92,0.18371
3082.14,0.16635
3076.35,0.16346
3070.56,0.15837
3064.78,0.15674
3058.99,0.15367
3053.2,0.15365
3047.42,0.18447
3041.63,0.21385
3035.85,0.21783
3030.06,0.20616
3024.27,0.18574
3018.49,0.15820
3012.7,0.13069
3006.91,0.10726
3001.13,0.08621
2995.34,0.06680
2989.56,0.04895
2983.77,0.03778
2977.98,0.03432
2972.2,0.03323
2966.41,0.03398
2960.62,0.03583
2954.84,0.04242
2949.05,0.05528
2943.27,0.06762
2937.48,0.07436
2931.69,0.07796
2925.91,0.07930
2920.12,0.07798
2914.33,0.07321
2908.55,0.05863
2902.76,0.05100
2896.98,0.06475
2891.19,0.08213
2885.4,0.09528
2879.62,0.10534
2873.83,0.11223
2868.04,0.11576
2862.26,0.11815
2856.47,0.12138
2850.69,0.13125
2844.9,0.15456
2839.11,0.17408
2833.33,0.18755
2827.54,0.20408
2821.75,0.22538
2815.97,0.23946
2810.18,0.24322
2804.4,0.24628
2798.61,0.25543
2792.82,0.26265
2787.04,0.26442
2781.25,0.26471
2775.46,0.26618
2769.68,0.27021
2763.89,0.28223
2758.11,0.29497
2752.32,0.30242
2746.53,0.30364
2740.75,0.30297
2734.96,0.31465
2729.17,0.33023
2723.39,0.34172
2717.6,0.34397
2711.82,0.34390
2706.03,0.35261
2700.24,0.36193
2694.46,0.36609
2688.67,0.36679
2682.88,0.36588
2677.1,0.36687
2671.31,0.36501
2665.53,0.36211
2659.74,0.36019
2653.95,0.35438
2648.17,0.34566
2642.38,0.33556
2636.59,0.32306
2630.81,0.31222
2625.02,0.31369
2619.24,0.32057
2613.45,0.32707
2607.66,0.33011
2601.88,0.32895
2596.09,0.32289
2590.3,0.31016
2584.52,0.29622
2578.73,0.28926
2572.95,0.29146
2567.16,0.29384
2561.37,0.29067
2555.59,0.28464
2549.8,0.27979
2544.02,0.27690
2538.23,0.27618
2532.44,0.27961
2526.66,0.28736
2520.87,0.29697
2515.08,0.30553
2509.3,0.31519
2503.51,0.32507
2497.73,0.32969
2491.94,0.33294
2486.15,0.33521
2480.37,0.34328
2474.58,0.35461
2468.79,0.36050
2463.01,0.36238
2457.22,0.36175
2451.44,0.35833
2445.65,0.35292
2439.86,0.33858
2434.08,0.31599
2428.29,0.29721
2422.5,0.28133
2416.72,0.26357
2410.93,0.25038
2405.15,0.23990
2399.36,0.22953
2393.57,0.22245
2387.79,0.21875
2382,0.21790
2376.21,0.22009
2370.43,0.22795
2364.64,0.24371
2358.86,0.26390
2353.07,0.28547
2347.28,0.30458
2341.5,0.32131
2335.71,0.33268
2329.92,0.33487
2324.14,0.33349
2318.35,0.34809
2312.57,0.35760
2306.78,0.35324
2300.99,0.34107
2295.21,0.32009
2289.42,0.29656
2283.63,0.28450
2277.85,0.28931
2272.06,0.30144
2266.28,0.30473
2260.49,0.30120
2254.7,0.29299
2248.92,0.28250
2243.13,0.27635
2237.34,0.27470
2231.56,0.27354
2225.77,0.27338
2219.99,0.27457
2214.2,0.27186
2208.41,0.27028
2202.63,0.28117
2196.84,0.28854
2191.05,0.29249
2185.27,0.30059
2179.48,0.30789
2173.7,0.30840
2167.91,0.30272
2162.12,0.29447
2156.34,0.28526
2150.55,0.27679
2144.76,0.27168
2138.98,0.26678
2133.19,0.26302
2127.41,0.25881
2121.62,0.25411
2115.83,0.24952
2110.05,0.24759
2104.26,0.24770
2098.47,0.24735
2092.69,0.24915
2086.9,0.25268
2081.12,0.25718
2075.33,0.26151
2069.54,0.26239
2063.76,0.25977
2057.97,0.26159
2052.19,0.26891
2046.4,0.27558
2040.61,0.27240
2034.83,0.26243
2029.04,0.25694
2023.25,0.26035
2017.47,0.25922
2011.68,0.26024
2005.9,0.26243
2000.11,0.25584
1994.32,0.24483
1988.54,0.23666
1982.75,0.23299
1976.96,0.22213
1971.18,0.20447
1965.39,0.17973
1959.61,0.15257
1953.82,0.13321
1948.03,0.14123
1942.25,0.16968
1936.46,0.19708
1930.67,0.22045
1924.89,0.23981
1919.1,0.25295
1913.32,0.25986
1907.53,0.25951
1901.74,0.25318
1895.96,0.24519
1890.17,0.23861
1884.38,0.23013
1878.6,0.22990
1872.81,0.22850
1867.03,0.21827
1861.24,0.20727
1855.45,0.19549
1849.67,0.17792
1843.88,0.15560
1838.09,0.13651
1832.31,0.12052
1826.52,0.10852
1820.74,0.10552
1814.95,0.10530
1809.16,0.10208
1803.38,0.09763
1797.59,0.09364
1791.8,0.08960
1786.02,0.08323
1780.23,0.07559
1774.45,0.06820
1768.66,0.05902
1762.87,0.04912
1757.09,0.03822
1751.3,0.02761
1745.51,0.01931
1739.73,0.01597
1733.94,0.01689
1728.16,0.02130
1722.37,0.02806
1716.58,0.03310
1710.8,0.03132
1705.01,0.02853
1699.22,0.03174
1693.44,0.03681
1687.65,0.04266
1681.87,0.04557
1676.08,0.04694
1670.29,0.05548
1664.51,0.07443
1658.72,0.09016
1652.93,0.09933
1647.15,0.10599
1641.36,0.11141
1635.58,0.11724
1629.79,0.12272
1624,0.12509
1618.22,0.11162
1612.43,0.09979
1606.64,0.11717
1600.86,0.13595
1595.07,0.13943
1589.29,0.12603
1583.5,0.09147
1577.71,0.06541
1571.93,0.09082
1566.14,0.12031
1560.35,0.13042
1554.57,0.13243
1548.78,0.13547
1543,0.13293
1537.21,0.11952
1531.42,0.09891
1525.64,0.09298
1519.85,0.09418
1514.07,0.07845
1508.28,0.04230
1502.49,0.03664
1496.71,0.08373
1490.92,0.10139
1485.13,0.07911
1479.35,0.05014
1473.56,0.03136
1467.78,0.02594
1461.99,0.02731
1456.2,0.03273
1450.42,0.03979
1444.63,0.04905
1438.84,0.05241
1433.06,0.05038
1427.27,0.03962
1421.49,0.02845
1415.7,0.02032
1409.91,0.01818
1404.13,0.02206
1398.34,0.02566
1392.55,0.02338
1386.77,0.02315
1380.98,0.02472
1375.2,0.02758
1369.41,0.03019
1363.62,0.02762
1357.84,0.02453
1352.05,0.02872
1346.26,0.03154
1340.48,0.02751
1334.69,0.02283
1328.91,0.02041
1323.12,0.01892
1317.33,0.01684
1311.55,0.01524
1305.76,0.01457
1299.97,0.01531
1294.19,0.01729
1288.4,0.02116
1282.62,0.02821
1276.83,0.03560
1271.04,0.03941
1265.26,0.03867
1259.47,0.03631
1253.68,0.03557
1247.9,0.03746
1242.11,0.03633
1236.33,0.03401
1230.54,0.03464
1224.75,0.03674
1218.97,0.04200
1213.18,0.05351
1207.39,0.05847
1201.61,0.06538
1195.82,0.07559
1190.04,0.08023
1184.25,0.07086
1178.46,0.05332
1172.68,0.04490
1166.89,0.04759
1161.1,0.04341
1155.32,0.03395
1149.53,0.02518
1143.75,0.01947
1137.96,0.01722
1132.17,0.02055
1126.39,0.02788
1120.6,0.02706
1114.81,0.02555
1109.03,0.02549
1103.24,0.03047
1097.46,0.02992
1091.67,0.02884
1085.88,0.02945
1080.1,0.03460
1074.31,0.04785
1068.52,0.06112
1062.74,0.06614
1056.95,0.05857
1051.17,0.04112
1045.38,0.02995
1039.59,0.03070
1033.81,0.03256
1028.02,0.02970
1022.24,0.02684
1016.45,0.03213
1010.66,0.06604
1004.88,0.10488
999.09,0.12057
993.304,0.11654
987.518,0.09891
981.731,0.08203
975.945,0.07123
970.159,0.07546
964.373,0.08887
958.586,0.08626
952.8,0.06771
947.014,0.06075
941.228,0.06231
935.441,0.06077
929.655,0.07021
923.869,0.08761
918.083,0.09624
912.297,0.09340
906.51,0.08774
900.724,0.09368
894.938,0.10263
889.152,0.10344
883.365,0.07837
877.579,0.04333
871.793,0.03570
866.007,0.07673
860.22,0.08652
854.434,0.07211
848.648,0.06949
842.862,0.07680
837.075,0.09569
831.289,0.10685
825.503,0.10764
819.717,0.10684
813.931,0.10940
808.144,0.11072
802.358,0.11612
796.572,0.08608
790.786,0.10246
784.999,0.13314
779.213,0.13027
773.427,0.11999
767.641,0.12702
761.854,0.12727
756.068,0.12011
750.282,0.10199
744.496,0.06333
738.709,0.02480
732.923,0.02136
727.137,0.03031
721.351,0.04248
715.565,0.08758
709.778,0.10818
703.992,0.11769
698.206,0.16004
692.42,0.18697
686.633,0.18676
680.847,0.17294
675.061,0.18908
669.275,0.20211
663.488,0.21047
657.702,0.21200
651.916,0.21508
646.13,0.21983
640.343,0.22054
634.557,0.18981
628.771,0.20405
622.985,0.23003
617.198,0.23606
611.412,0.23836
605.626,0.23974
599.84,0.24109