File: 01_Data/Triexta_Carpet_High_Pile/FTIR/IS/Triexta_Carpet_High_Pile_IS_S_221121_R2.dpt
7497.03,0.84177
7491.25,0.84835
7485.46,0.83483
7479.67,0.83883
7473.89,0.84257
7468.1,0.84738
7462.32,0.84997
7456.53,0.84494
7450.74,0.82583
7444.96,0.83041
7439.17,0.83396
7433.38,0.83633
7427.6,0.83009
7421.81,0.83254
7416.03,0.82130
7410.24,0.82713
7404.45,0.82066
7398.67,0.82453
7392.88,0.80727
7387.09,0.80736
7381.31,0.82847
7375.52,0.80545
7369.74,0.81633
7363.95,0.81355
7358.16,0.79327
7352.38,0.79362
7346.59,0.79997
7340.8,0.79610
7335.02,0.79335
7329.23,0.78967
7323.45,0.78628
7317.66,0.80159
7311.87,0.78898
7306.09,0.79379
7300.3,0.79657
7294.51,0.80271
7288.73,0.79831
7282.94,0.80249
7277.16,0.79106
7271.37,0.78904
7265.58,0.78835
7259.8,0.79983
7254.01,0.79535
7248.22,0.78565
7242.44,0.78728
7236.65,0.78528
7230.87,0.77956
7225.08,0.77653
7219.29,0.78669
7213.51,0.78149
7207.72,0.78258
7201.93,0.78540
7196.15,0.77678
7190.36,0.78207
7184.58,0.78675
7178.79,0.78619
7173,0.78316
7167.22,0.78165
7161.43,0.78786
7155.65,0.78656
7149.86,0.78262
7144.07,0.78258
7138.29,0.78540
7132.5,0.79124
7126.71,0.78955
7120.93,0.78858
7115.14,0.77525
7109.36,0.78333
7103.57,0.78114
7097.78,0.78358
7092,0.78573
7086.21,0.78461
7080.42,0.78012
7074.64,0.77658
7068.85,0.78514
7063.07,0.78129
7057.28,0.79182
7051.49,0.78508
7045.71,0.78144
7039.92,0.77499
7034.13,0.77741
7028.35,0.77941
7022.56,0.77896
7016.78,0.77580
7010.99,0.78065
7005.2,0.77713
6999.42,0.78019
6993.63,0.78496
6987.84,0.78738
6982.06,0.78681
6976.27,0.79553
6970.49,0.79352
6964.7,0.78958
6958.91,0.79464
6953.13,0.80049
6947.34,0.79853
6941.55,0.79996
6935.77,0.79612
6929.98,0.79750
6924.2,0.80187
6918.41,0.80758
6912.62,0.80247
6906.84,0.79812
6901.05,0.79862
6895.26,0.80181
6889.48,0.80287
6883.69,0.80963
6877.91,0.80862
6872.12,0.80725
6866.33,0.80798
6860.55,0.80742
6854.76,0.81293
6848.97,0.82049
6843.19,0.81790
6837.4,0.81187
6831.62,0.81797
6825.83,0.81489
6820.04,0.82220
6814.26,0.82714
6808.47,0.83186
6802.68,0.82211
6796.9,0.82587
6791.11,0.82996
6785.33,0.82938
6779.54,0.82696
6773.75,0.82295
6767.97,0.82831
6762.18,0.82552
6756.39,0.82466
6750.61,0.82756
6744.82,0.83206
6739.04,0.83315
6733.25,0.82993
6727.46,0.83639
6721.68,0.82861
6715.89,0.83366
6710.1,0.82903
6704.32,0.83667
6698.53,0.83081
6692.75,0.83250
6686.96,0.83747
6681.17,0.83187
6675.39,0.83601
6669.6,0.83943
6663.82,0.83772
6658.03,0.83500
6652.24,0.83706
6646.46,0.83912
6640.67,0.84212
6634.88,0.84057
6629.1,0.83945
6623.31,0.84150
6617.53,0.84491
6611.74,0.84114
6605.95,0.84036
6600.17,0.84061
6594.38,0.84450
6588.59,0.84600
6582.81,0.83872
6577.02,0.84469
6571.24,0.84336
6565.45,0.84075
6559.66,0.83931
6553.88,0.84420
6548.09,0.84487
6542.3,0.85101
6536.52,0.84733
6530.73,0.84059
6524.95,0.84595
6519.16,0.84598
6513.37,0.84531
6507.59,0.84353
6501.8,0.84816
6496.01,0.84295
6490.23,0.84395
6484.44,0.84508
6478.66,0.84265
6472.87,0.84325
6467.08,0.84074
6461.3,0.84445
6455.51,0.84009
6449.72,0.84079
6443.94,0.83895
6438.15,0.83910
6432.37,0.84150
6426.58,0.84502
6420.79,0.84095
6415.01,0.83793
6409.22,0.84471
6403.43,0.84517
6397.65,0.83971
6391.86,0.84205
6386.08,0.84422
6380.29,0.84065
6374.5,0.84028
6368.72,0.84500
6362.93,0.84375
6357.14,0.83787
6351.36,0.84098
6345.57,0.84269
6339.79,0.83702
6334,0.83546
6328.21,0.83489
6322.43,0.83445
6316.64,0.83539
6310.85,0.83873
6305.07,0.83457
6299.28,0.83619
6293.5,0.83376
6287.71,0.83750
6281.92,0.83812
6276.14,0.83304
6270.35,0.83320
6264.56,0.83143
6258.78,0.82889
6252.99,0.82970
6247.21,0.82593
6241.42,0.82074
6235.63,0.81936
6229.85,0.82224
6224.06,0.81383
6218.27,0.81588
6212.49,0.80713
6206.7,0.79905
6200.92,0.78393
6195.13,0.77621
6189.34,0.77527
6183.56,0.78293
6177.77,0.78454
6171.98,0.78426
6166.2,0.77852
6160.41,0.77585
6154.63,0.76998
6148.84,0.76414
6143.05,0.76142
6137.27,0.75671
6131.48,0.75383
6125.7,0.74952
6119.91,0.74142
6114.12,0.72704
6108.34,0.70573
6102.55,0.68417
6096.76,0.65585
6090.98,0.63640
6085.19,0.62340
6079.41,0.60470
6073.62,0.58609
6067.83,0.55960
6062.05,0.53174
6056.26,0.51773
6050.47,0.50487
6044.69,0.49035
6038.9,0.48208
6033.12,0.47902
6027.33,0.46920
6021.54,0.46423
6015.76,0.47255
6009.97,0.48650
6004.18,0.50259
5998.4,0.52504
5992.61,0.54475
5986.83,0.55745
5981.04,0.56505
5975.25,0.57169
5969.47,0.57961
5963.68,0.57985
5957.89,0.57800
5952.11,0.56834
5946.32,0.55729
5940.54,0.55811
5934.75,0.56441
5928.96,0.57887
5923.18,0.58929
5917.39,0.60158
5911.6,0.60778
5905.82,0.61288
5900.03,0.61087
5894.25,0.61311
5888.46,0.61552
5882.67,0.61683
5876.89,0.62113
5871.1,0.62756
5865.31,0.63304
5859.53,0.63380
5853.74,0.63798
5847.96,0.63593
5842.17,0.63040
5836.38,0.62399
5830.6,0.61493
5824.81,0.60636
5819.02,0.59505
5813.24,0.58296
5807.45,0.57876
5801.67,0.57446
5795.88,0.56966
5790.09,0.57763
5784.31,0.58903
5778.52,0.60141
5772.73,0.61199
5766.95,0.61711
5761.16,0.61996
5755.38,0.62217
5749.59,0.62334
5743.8,0.62998
5738.02,0.63022
5732.23,0.63681
5726.44,0.64096
5720.66,0.64803
5714.87,0.65275
5709.09,0.65719
5703.3,0.66162
5697.51,0.66288
5691.73,0.66643
5685.94,0.67054
5680.15,0.67216
5674.37,0.67480
5668.58,0.67558
5662.8,0.67771
5657.01,0.67697
5651.22,0.67665
5645.44,0.68048
5639.65,0.68365
5633.87,0.68761
5628.08,0.69562
5622.29,0.69933
5616.51,0.70705
5610.72,0.71033
5604.93,0.71120
5599.15,0.71107
5593.36,0.70806
5587.58,0.70697
5581.79,0.70481
5576,0.70119
5570.22,0.69795
5564.43,0.69521
5558.64,0.69270
5552.86,0.69302
5547.07,0.69259
5541.29,0.69478
5535.5,0.69463
5529.71,0.69882
5523.93,0.69787
5518.14,0.70154
5512.35,0.70586
5506.57,0.70539
5500.78,0.70899
5495,0.70982
5489.21,0.70579
5483.42,0.70275
5477.64,0.70074
5471.85,0.69972
5466.06,0.70192
5460.28,0.70537
5454.49,0.71046
5448.71,0.71809
5442.92,0.72105
5437.13,0.72422
5431.35,0.72695
5425.56,0.73015
5419.77,0.72863
5413.99,0.72978
5408.2,0.73003
5402.42,0.72801
5396.63,0.73000
5390.84,0.73039
5385.06,0.73113
5379.27,0.73114
5373.48,0.72955
5367.7,0.72953
5361.91,0.73092
5356.13,0.72737
5350.34,0.72881
5344.55,0.72793
5338.77,0.72932
5332.98,0.72909
5327.19,0.73234
5321.41,0.73569
5315.62,0.73840
5309.84,0.73478
5304.05,0.73724
5298.26,0.73487
5292.48,0.73146
5286.69,0.73134
5280.9,0.72911
5275.12,0.72421
5269.33,0.72083
5263.55,0.71815
5257.76,0.72016
5251.97,0.72165
5246.19,0.72423
5240.4,0.72388
5234.61,0.72651
5228.83,0.72583
5223.04,0.72572
5217.26,0.72598
5211.47,0.72547
5205.68,0.72662
5199.9,0.72740
5194.11,0.72550
5188.32,0.72433
5182.54,0.72441
5176.75,0.72158
5170.97,0.72178
5165.18,0.72051
5159.39,0.72025
5153.61,0.71557
5147.82,0.71116
5142.03,0.70743
5136.25,0.70348
5130.46,0.69886
5124.68,0.68939
5118.89,0.68448
5113.1,0.68254
5107.32,0.68008
5101.53,0.67883
5095.75,0.67898
5089.96,0.67964
5084.17,0.68748
5078.39,0.70121
5072.6,0.70986
5066.81,0.71749
5061.03,0.72340
5055.24,0.72793
5049.46,0.72986
5043.67,0.73132
5037.88,0.72989
5032.1,0.72851
5026.31,0.72666
5020.52,0.72681
5014.74,0.72582
5008.95,0.72578
5003.17,0.72648
4997.38,0.72799
4991.59,0.72577
4985.81,0.72722
4980.02,0.72954
4974.23,0.73215
4968.45,0.73255
4962.66,0.73025
4956.88,0.72944
4951.09,0.72468
4945.3,0.72361
4939.52,0.72118
4933.73,0.71967
4927.94,0.71890
4922.16,0.72069
4916.37,0.71859
4910.59,0.71623
4904.8,0.71594
4899.01,0.71405
4893.23,0.71469
4887.44,0.71169
4881.65,0.71135
4875.87,0.70864
4870.08,0.70771
4864.3,0.70613
4858.51,0.70385
4852.72,0.70194
4846.94,0.69879
4841.15,0.69342
4835.36,0.68440
4829.58,0.67338
4823.79,0.66148
4818.01,0.64948
4812.22,0.64253
4806.43,0.63688
4800.65,0.63068
4794.86,0.62654
4789.07,0.62887
4783.29,0.63245
4777.5,0.64097
4771.72,0.64684
4765.93,0.65172
4760.14,0.65228
4754.36,0.64663
4748.57,0.63436
4742.78,0.61751
4737,0.60204
4731.21,0.57602
4725.43,0.53913
4719.64,0.51204
4713.85,0.50511
4708.07,0.49984
4702.28,0.47982
4696.49,0.44902
4690.71,0.42466
4684.92,0.42634
4679.14,0.44738
4673.35,0.47830
4667.56,0.50437
4661.78,0.51631
4655.99,0.51716
4650.2,0.51191
4644.42,0.49228
4638.63,0.46871
4632.85,0.46444
4627.06,0.48424
4621.27,0.51834
4615.49,0.54799
4609.7,0.56914
4603.92,0.57571
4598.13,0.56611
4592.34,0.54364
4586.56,0.53052
4580.77,0.51458
4574.98,0.51830
4569.2,0.55265
4563.41,0.58850
4557.63,0.60451
4551.84,0.60725
4546.05,0.60604
4540.27,0.60534
4534.48,0.60226
4528.69,0.59824
4522.91,0.59229
4517.12,0.58236
4511.34,0.57029
4505.55,0.55093
4499.76,0.52212
4493.98,0.48545
4488.19,0.46594
4482.4,0.46138
4476.62,0.45672
4470.83,0.44701
4465.05,0.42665
4459.26,0.40272
4453.47,0.38494
4447.69,0.36657
4441.9,0.34471
4436.11,0.32709
4430.33,0.31544
4424.54,0.31000
4418.76,0.31970
4412.97,0.33592
4407.18,0.34274
4401.4,0.34524
4395.61,0.35685
4389.82,0.36767
4384.04,0.36852
4378.25,0.36207
4372.47,0.34882
4366.68,0.33907
4360.89,0.33777
4355.11,0.33932
4349.32,0.34463
4343.53,0.35082
4337.75,0.35549
4331.96,0.35884
4326.18,0.36455
4320.39,0.37016
4314.6,0.37666
4308.82,0.37807
4303.03,0.37147
4297.24,0.36208
4291.46,0.35463
4285.67,0.35240
4279.89,0.34926
4274.1,0.34241
4268.31,0.33797
4262.53,0.34090
4256.74,0.34768
4250.95,0.35228
4245.17,0.35501
4239.38,0.35614
4233.6,0.35348
4227.81,0.34879
4222.02,0.34653
4216.24,0.34750
4210.45,0.34678
4204.66,0.34797
4198.88,0.35366
4193.09,0.36012
4187.31,0.35923
4181.52,0.35008
4175.73,0.34469
4169.95,0.35882
4164.16,0.37923
4158.37,0.39476
4152.59,0.40506
4146.8,0.41262
4141.02,0.41526
4135.23,0.41012
4129.44,0.40132
4123.66,0.39068
4117.87,0.37663
4112.09,0.35843
4106.3,0.33445
4100.51,0.30576
4094.73,0.26640
4088.94,0.24438
4083.15,0.26058
4077.37,0.28971
4071.58,0.31761
4065.8,0.33693
4060.01,0.35095
4054.22,0.35895
4048.44,0.36602
4042.65,0.37587
4036.86,0.38402
4031.08,0.38742
4025.29,0.38858
4019.51,0.39404
4013.72,0.39959
4007.93,0.40452
4002.15,0.41449
3996.36,0.42538
3990.57,0.43366
3984.79,0.44046
3979,0.44483
3973.22,0.44689
3967.43,0.44863
3961.64,0.44503
3955.86,0.43917
3950.07,0.43215
3944.28,0.42411
3938.5,0.41968
3932.71,0.41783
3926.93,0.41420
3921.14,0.41299
3915.35,0.41626
3909.57,0.42224
3903.78,0.43188
3897.99,0.43932
3892.21,0.44525
3886.42,0.45542
3880.64,0.46463
3874.85,0.47192
3869.06,0.47807
3863.28,0.48201
3857.49,0.48432
3851.7,0.48804
3845.92,0.49329
3840.13,0.49449
3834.35,0.49080
3828.56,0.49000
3822.77,0.49233
3816.99,0.48385
3811.2,0.47208
3805.41,0.46769
3799.63,0.48433
3793.84,0.50498
3788.06,0.51605
3782.27,0.51733
3776.48,0.50940
3770.7,0.49787
3764.91,0.48572
3759.12,0.47125
3753.34,0.47651
3747.55,0.50342
3741.77,0.51076
3735.98,0.49750
3730.19,0.49167
3724.41,0.50938
3718.62,0.51800
3712.83,0.51450
3707.05,0.50208
3701.26,0.48192
3695.48,0.45198
3689.69,0.41353
3683.9,0.41657
3678.12,0.46085
3672.33,0.50286
3666.54,0.51949
3660.76,0.52343
3654.97,0.51888
3649.19,0.51132
3643.4,0.49954
3637.61,0.48894
3631.83,0.47967
3626.04,0.46950
3620.25,0.45793
3614.47,0.44522
3608.68,0.43323
3602.9,0.41907
3597.11,0.40051
3591.32,0.37845
3585.54,0.35485
3579.75,0.33210
3573.97,0.31194
3568.18,0.29560
3562.39,0.28243
3556.61,0.27400
3550.82,0.26986
3545.03,0.26896
3539.25,0.27040
3533.46,0.27492
3527.68,0.28187
3521.89,0.29082
3516.1,0.30014
3510.32,0.30896
3504.53,0.31755
3498.74,0.32408
3492.96,0.32838
3487.17,0.33023
3481.39,0.33075
3475.6,0.32566
3469.81,0.31665
3464.03,0.30173
3458.24,0.28311
3452.45,0.25991
3446.67,0.23223
3440.88,0.20558
3435.1,0.18102
3429.31,0.16702
3423.52,0.16621
3417.74,0.16698
3411.95,0.17002
3406.16,0.19714
3400.38,0.24547
3394.59,0.28625
3388.81,0.30957
3383.02,0.32320
3377.23,0.33297
3371.45,0.33805
3365.66,0.33875
3359.87,0.33588
3354.09,0.32847
3348.3,0.31635
3342.52,0.30270
3336.73,0.28978
3330.94,0.28094
3325.16,0.28634
3319.37,0.30329
3313.58,0.31523
3307.8,0.31700
3302.01,0.31148
3296.23,0.30628
3290.44,0.30449
3284.65,0.30985
3278.87,0.31999
3273.08,0.32571
3267.29,0.32793
3261.51,0.32771
3255.72,0.32648
3249.94,0.32421
3244.15,0.32217
3238.36,0.31719
3232.58,0.31228
3226.79,0.30840
3221,0.30814
3215.22,0.31380
3209.43,0.31951
3203.65,0.31931
3197.86,0.31567
3192.07,0.31147
3186.29,0.30842
3180.5,0.30586
3174.71,0.30285
3168.93,0.29949
3163.14,0.29567
3157.36,0.29006
3151.57,0.28316
3145.78,0.27493
3140,0.26438
3134.21,0.24764
3128.42,0.23080
3122.64,0.23147
3116.85,0.23083
3111.07,0.21648
3105.28,0.19649
3099.49,0.19173
3093.71,0.19793
3087.92,0.18473
3082.14,0.16727
3076.35,0.16398
3070.56,0.15971
3064.78,0.15732
3058.99,0.15459
3053.2,0.15417
3047.42,0.18538
3041.63,0.21512
3035.85,0.21839
3030.06,0.20722
3024.27,0.18657
3018.49,0.15847
3012.7,0.13181
3006.91,0.10724
3001.13,0.08525
2995.34,0.06666
2989.56,0.04899
2983.77,0.03786
2977.98,0.03455
2972.2,0.03304
2966.41,0.03401
2960.62,0.03638
2954.84,0.04272
2949.05,0.05572
2943.27,0.06778
2937.48,0.07491
2931.69,0.07838
2925.91,0.07966
2920.12,0.07774
2914.33,0.07340
2908.55,0.05839
2902.76,0.05057
2896.98,0.06487
2891.19,0.08248
2885.4,0.09575
2879.62,0.10583
2873.83,0.11284
2868.04,0.11609
2862.26,0.11811
2856.47,0.12204
2850.69,0.13112
2844.9,0.15505
2839.11,0.17461
2833.33,0.18849
2827.54,0.20470
2821.75,0.22579
2815.97,0.23989
2810.18,0.24325
2804.4,0.24667
2798.61,0.25663
2792.82,0.26381
2787.04,0.26581
2781.25,0.26575
2775.46,0.26784
2769.68,0.27137
2763.89,0.28395
2758.11,0.29641
2752.32,0.30349
2746.53,0.30466
2740.75,0.30448
2734.96,0.31598
2729.17,0.33186
2723.39,0.34337
2717.6,0.34577
2711.82,0.34528
2706.03,0.35429
2700.24,0.36333
2694.46,0.36798
2688.67,0.36863
2682.88,0.36732
2677.1,0.36815
2671.31,0.36673
2665.53,0.36381
2659.74,0.36153
2653.95,0.35554
2648.17,0.34684
2642.38,0.33688
2636.59,0.32510
2630.81,0.31308
2625.02,0.31508
2619.24,0.32215
2613.45,0.32864
2607.66,0.33167
2601.88,0.32991
2596.09,0.32397
2590.3,0.31158
2584.52,0.29767
2578.73,0.29081
2572.95,0.29292
2567.16,0.29501
2561.37,0.29157
2555.59,0.28605
2549.8,0.28124
2544.02,0.27810
2538.23,0.27700
2532.44,0.28055
2526.66,0.28883
2520.87,0.29797
2515.08,0.30698
2509.3,0.31659
2503.51,0.32623
2497.73,0.33108
2491.94,0.33446
2486.15,0.33711
2480.37,0.34496
2474.58,0.35578
2468.79,0.36245
2463.01,0.36415
2457.22,0.36321
2451.44,0.35996
2445.65,0.35437
2439.86,0.33983
2434.08,0.31725
2428.29,0.29871
2422.5,0.28224
2416.72,0.26506
2410.93,0.25146
2405.15,0.24111
2399.36,0.23106
2393.57,0.22335
2387.79,0.21980
2382,0.21918
2376.21,0.22110
2370.43,0.22872
2364.64,0.24440
2358.86,0.26526
2353.07,0.28678
2347.28,0.30570
2341.5,0.32252
2335.71,0.33461
2329.92,0.33689
2324.14,0.33450
2318.35,0.35018
2312.57,0.35965
2306.78,0.35534
2300.99,0.34251
2295.21,0.32150
2289.42,0.29796
2283.63,0.28576
2277.85,0.29056
2272.06,0.30267
2266.28,0.30612
2260.49,0.30272
2254.7,0.29416
2248.92,0.28332
2243.13,0.27779
2237.34,0.27633
2231.56,0.27450
2225.77,0.27443
2219.99,0.27547
2214.2,0.27300
2208.41,0.27165
2202.63,0.28218
2196.84,0.28985
2191.05,0.29362
2185.27,0.30201
2179.48,0.30865
2173.7,0.30963
2167.91,0.30434
2162.12,0.29582
2156.34,0.28617
2150.55,0.27812
2144.76,0.27262
2138.98,0.26780
2133.19,0.26431
2127.41,0.26049
2121.62,0.25546
2115.83,0.25028
2110.05,0.24854
2104.26,0.24842
2098.47,0.24828
2092.69,0.25048
2086.9,0.25392
2081.12,0.25786
2075.33,0.26237
2069.54,0.26364
2063.76,0.26119
2057.97,0.26252
2052.19,0.26954
2046.4,0.27650
2040.61,0.27309
2034.83,0.26322
2029.04,0.25830
2023.25,0.26128
2017.47,0.26024
2011.68,0.26096
2005.9,0.26312
2000.11,0.25645
1994.32,0.24574
1988.54,0.23752
1982.75,0.23366
1976.96,0.22275
1971.18,0.20542
1965.39,0.18035
1959.61,0.15346
1953.82,0.13386
1948.03,0.14157
1942.25,0.17019
1936.46,0.19807
1930.67,0.22112
1924.89,0.24045
1919.1,0.25410
1913.32,0.26081
1907.53,0.26092
1901.74,0.25406
1895.96,0.24629
1890.17,0.23931
1884.38,0.23104
1878.6,0.23062
1872.81,0.22963
1867.03,0.21901
1861.24,0.20788
1855.45,0.19644
1849.67,0.17877
1843.88,0.15620
1838.09,0.13675
1832.31,0.12033
1826.52,0.10896
1820.74,0.10600
1814.95,0.10585
1809.16,0.10239
1803.38,0.09756
1797.59,0.09401
1791.8,0.08946
1786.02,0.08324
1780.23,0.07569
1774.45,0.06819
1768.66,0.05919
1762.87,0.04884
1757.09,0.03837
1751.3,0.02746
1745.51,0.01914
1739.73,0.01553
1733.94,0.01661
1728.16,0.02088
1722.37,0.02774
1716.58,0.03335
1710.8,0.03131
1705.01,0.02879
1699.22,0.03112
1693.44,0.03722
1687.65,0.04238
1681.87,0.04520
1676.08,0.04654
1670.29,0.05569
1664.51,0.07442
1658.72,0.09028
1652.93,0.09975
1647.15,0.10649
1641.36,0.11176
1635.58,0.11718
1629.79,0.12346
1624,0.12545
1618.22,0.11206
1612.43,0.10007
1606.64,0.11810
1600.86,0.13655
1595.07,0.14007
1589.29,0.12658
1583.5,0.09128
1577.71,0.06503
1571.93,0.09108
1566.14,0.12051
1560.35,0.13053
1554.57,0.13293
1548.78,0.13588
1543,0.13314
1537.21,0.11953
1531.42,0.09873
1525.64,0.09335
1519.85,0.09426
1514.07,0.07827
1508.28,0.04268
1502.49,0.03706
1496.71,0.08449
1490.92,0.10162
1485.13,0.07932
1479.35,0.05013
1473.56,0.03101
1467.78,0.02538
1461.99,0.02720
1456.2,0.03243
1450.42,0.03942
1444.63,0.04872
1438.84,0.05262
1433.06,0.05075
1427.27,0.03962
1421.49,0.02843
1415.7,0.02072
1409.91,0.01855
1404.13,0.02164
1398.34,0.02555
1392.55,0.02289
1386.77,0.02292
1380.98,0.02484
1375.2,0.02703
1369.41,0.02979
1363.62,0.02719
1357.84,0.02431
1352.05,0.02845
1346.26,0.03173
1340.48,0.02749
1334.69,0.02215
1328.91,0.02001
1323.12,0.01845
1317.33,0.01657
1311.55,0.01502
1305.76,0.01425
1299.97,0.01549
1294.19,0.01705
1288.4,0.02110
1282.62,0.02815
1276.83,0.03561
1271.04,0.03937
1265.26,0.03909
1259.47,0.03635
1253.68,0.03577
1247.9,0.03754
1242.11,0.03575
1236.33,0.03422
1230.54,0.03414
1224.75,0.03643
1218.97,0.04202
1213.18,0.05344
1207.39,0.05881
1201.61,0.06503
1195.82,0.07588
1190.04,0.08053
1184.25,0.07048
1178.46,0.05296
1172.68,0.04475
1166.89,0.04698
1161.1,0.04301
1155.32,0.03400
1149.53,0.02469
1143.75,0.01927
1137.96,0.01719
1132.17,0.01999
1126.39,0.02734
1120.6,0.02737
1114.81,0.02523
1109.03,0.02532
1103.24,0.02989
1097.46,0.03010
1091.67,0.02871
1085.88,0.02873
1080.1,0.03416
1074.31,0.04826
1068.52,0.06115
1062.74,0.06570
1056.95,0.05804
1051.17,0.04045
1045.38,0.02959
1039.59,0.03053
1033.81,0.03214
1028.02,0.02962
1022.24,0.02582
1016.45,0.03240
1010.66,0.06606
1004.88,0.10596
999.09,0.12063
993.304,0.11704
987.518,0.09960
981.731,0.08208
975.945,0.07149
970.159,0.07543
964.373,0.08809
958.586,0.08658
952.8,0.06715
947.014,0.06176
941.228,0.06224
935.441,0.05961
929.655,0.06912
923.869,0.08693
918.083,0.09609
912.297,0.09326
906.51,0.08715
900.724,0.09304
894.938,0.10238
889.152,0.10314
883.365,0.07664
877.579,0.04205
871.793,0.03476
866.007,0.07718
860.22,0.08637
854.434,0.07218
848.648,0.06930
842.862,0.07685
837.075,0.09512
831.289,0.10603
825.503,0.10807
819.717,0.10794
813.931,0.10897
808.144,0.11101
802.358,0.11581
796.572,0.08468
790.786,0.10383
784.999,0.13323
779.213,0.12950
773.427,0.12025
767.641,0.12594
761.854,0.12694
756.068,0.12024
750.282,0.10159
744.496,0.06331
738.709,0.02478
732.923,0.02124
727.137,0.03063
721.351,0.04253
715.565,0.08632
709.778,0.10851
703.992,0.11684
698.206,0.16136
692.42,0.18761
686.633,0.18770
680.847,0.17461
675.061,0.18958
669.275,0.20303
663.488,0.20996
657.702,0.21181
651.916,0.21720
646.13,0.21879
640.343,0.21953
634.557,0.18876
628.771,0.20491
622.985,0.23148
617.198,0.23472
611.412,0.23845
605.626,0.24079
599.84,0.23973