File: 01_Data/Triexta_Carpet_High_Pile/FTIR/IS/Triexta_Carpet_High_Pile_IS_S_221121_R5.dpt
7497.03,0.84857
7491.25,0.86082
7485.46,0.84386
7479.67,0.83302
7473.89,0.83717
7468.1,0.83544
7462.32,0.83859
7456.53,0.84402
7450.74,0.85180
7444.96,0.82897
7439.17,0.83288
7433.38,0.83506
7427.6,0.82278
7421.81,0.82321
7416.03,0.81853
7410.24,0.81410
7404.45,0.82486
7398.67,0.82235
7392.88,0.81841
7387.09,0.81316
7381.31,0.81955
7375.52,0.81425
7369.74,0.80163
7363.95,0.80191
7358.16,0.79708
7352.38,0.81502
7346.59,0.79562
7340.8,0.79862
7335.02,0.79591
7329.23,0.77908
7323.45,0.79165
7317.66,0.78662
7311.87,0.79282
7306.09,0.78560
7300.3,0.79076
7294.51,0.79747
7288.73,0.79158
7282.94,0.79471
7277.16,0.79220
7271.37,0.78914
7265.58,0.80658
7259.8,0.80865
7254.01,0.79335
7248.22,0.79074
7242.44,0.79500
7236.65,0.78985
7230.87,0.77701
7225.08,0.79058
7219.29,0.77857
7213.51,0.77328
7207.72,0.77771
7201.93,0.77859
7196.15,0.78432
7190.36,0.79082
7184.58,0.79003
7178.79,0.79230
7173,0.79178
7167.22,0.78217
7161.43,0.77744
7155.65,0.78243
7149.86,0.78266
7144.07,0.78664
7138.29,0.78616
7132.5,0.78278
7126.71,0.78002
7120.93,0.78521
7115.14,0.78463
7109.36,0.78009
7103.57,0.78619
7097.78,0.78578
7092,0.78614
7086.21,0.78647
7080.42,0.78863
7074.64,0.78626
7068.85,0.78504
7063.07,0.79098
7057.28,0.78159
7051.49,0.78206
7045.71,0.77365
7039.92,0.78395
7034.13,0.77462
7028.35,0.77191
7022.56,0.77998
7016.78,0.78052
7010.99,0.78034
7005.2,0.78197
6999.42,0.77976
6993.63,0.77883
6987.84,0.78149
6982.06,0.78998
6976.27,0.78906
6970.49,0.79040
6964.7,0.79342
6958.91,0.80447
6953.13,0.79842
6947.34,0.79914
6941.55,0.79785
6935.77,0.79830
6929.98,0.80299
6924.2,0.80014
6918.41,0.80188
6912.62,0.80230
6906.84,0.81065
6901.05,0.80913
6895.26,0.79906
6889.48,0.80245
6883.69,0.80501
6877.91,0.80782
6872.12,0.80934
6866.33,0.80883
6860.55,0.80041
6854.76,0.80640
6848.97,0.81165
6843.19,0.81531
6837.4,0.81137
6831.62,0.81514
6825.83,0.81506
6820.04,0.81598
6814.26,0.81489
6808.47,0.82301
6802.68,0.82875
6796.9,0.82503
6791.11,0.82414
6785.33,0.82683
6779.54,0.82701
6773.75,0.82390
6767.97,0.82470
6762.18,0.82259
6756.39,0.82347
6750.61,0.82927
6744.82,0.82999
6739.04,0.82629
6733.25,0.82702
6727.46,0.83209
6721.68,0.82846
6715.89,0.83378
6710.1,0.82833
6704.32,0.83809
6698.53,0.83237
6692.75,0.83662
6686.96,0.83169
6681.17,0.84146
6675.39,0.83416
6669.6,0.83734
6663.82,0.83622
6658.03,0.83365
6652.24,0.83239
6646.46,0.83768
6640.67,0.83370
6634.88,0.83843
6629.1,0.84227
6623.31,0.84435
6617.53,0.83979
6611.74,0.83844
6605.95,0.84097
6600.17,0.84440
6594.38,0.84593
6588.59,0.84908
6582.81,0.84165
6577.02,0.84026
6571.24,0.84151
6565.45,0.84003
6559.66,0.84162
6553.88,0.84310
6548.09,0.84736
6542.3,0.84370
6536.52,0.84342
6530.73,0.84131
6524.95,0.84382
6519.16,0.84737
6513.37,0.84188
6507.59,0.84413
6501.8,0.84029
6496.01,0.84076
6490.23,0.84089
6484.44,0.84234
6478.66,0.84045
6472.87,0.84357
6467.08,0.83863
6461.3,0.84023
6455.51,0.84586
6449.72,0.84629
6443.94,0.84077
6438.15,0.84017
6432.37,0.84339
6426.58,0.84029
6420.79,0.83684
6415.01,0.83621
6409.22,0.84244
6403.43,0.83965
6397.65,0.83723
6391.86,0.84294
6386.08,0.84290
6380.29,0.84098
6374.5,0.84228
6368.72,0.84203
6362.93,0.84159
6357.14,0.84024
6351.36,0.83581
6345.57,0.83512
6339.79,0.83521
6334,0.83342
6328.21,0.83255
6322.43,0.83863
6316.64,0.83130
6310.85,0.83456
6305.07,0.83144
6299.28,0.82955
6293.5,0.83586
6287.71,0.83795
6281.92,0.83928
6276.14,0.82873
6270.35,0.83649
6264.56,0.82754
6258.78,0.82795
6252.99,0.82739
6247.21,0.82393
6241.42,0.82795
6235.63,0.82400
6229.85,0.82226
6224.06,0.82013
6218.27,0.81599
6212.49,0.80701
6206.7,0.79833
6200.92,0.78243
6195.13,0.77628
6189.34,0.77711
6183.56,0.77825
6177.77,0.78035
6171.98,0.77904
6166.2,0.77807
6160.41,0.77941
6154.63,0.76985
6148.84,0.76289
6143.05,0.75934
6137.27,0.75879
6131.48,0.75746
6125.7,0.74859
6119.91,0.73887
6114.12,0.72473
6108.34,0.70719
6102.55,0.68578
6096.76,0.65429
6090.98,0.63482
6085.19,0.61454
6079.41,0.60513
6073.62,0.58825
6067.83,0.56179
6062.05,0.53539
6056.26,0.51639
6050.47,0.50609
6044.69,0.49333
6038.9,0.48006
6033.12,0.47555
6027.33,0.46581
6021.54,0.46453
6015.76,0.47089
6009.97,0.48479
6004.18,0.50562
5998.4,0.52191
5992.61,0.54043
5986.83,0.55841
5981.04,0.56562
5975.25,0.57411
5969.47,0.57970
5963.68,0.57910
5957.89,0.57687
5952.11,0.56909
5946.32,0.55795
5940.54,0.55763
5934.75,0.56644
5928.96,0.57722
5923.18,0.58697
5917.39,0.59935
5911.6,0.61019
5905.82,0.61213
5900.03,0.60925
5894.25,0.61005
5888.46,0.61375
5882.67,0.61582
5876.89,0.62077
5871.1,0.62487
5865.31,0.63219
5859.53,0.63916
5853.74,0.63449
5847.96,0.63334
5842.17,0.62837
5836.38,0.62502
5830.6,0.61715
5824.81,0.60840
5819.02,0.59399
5813.24,0.58319
5807.45,0.57913
5801.67,0.57513
5795.88,0.57266
5790.09,0.57650
5784.31,0.58981
5778.52,0.60305
5772.73,0.61367
5766.95,0.61890
5761.16,0.62256
5755.38,0.62329
5749.59,0.62312
5743.8,0.62882
5738.02,0.63072
5732.23,0.63578
5726.44,0.64399
5720.66,0.64578
5714.87,0.64913
5709.09,0.65473
5703.3,0.65786
5697.51,0.66440
5691.73,0.66488
5685.94,0.67183
5680.15,0.67204
5674.37,0.67377
5668.58,0.67525
5662.8,0.67579
5657.01,0.67459
5651.22,0.67515
5645.44,0.67773
5639.65,0.68450
5633.87,0.68837
5628.08,0.69334
5622.29,0.70038
5616.51,0.70425
5610.72,0.70941
5604.93,0.71034
5599.15,0.71102
5593.36,0.70880
5587.58,0.70443
5581.79,0.70452
5576,0.69968
5570.22,0.69679
5564.43,0.69519
5558.64,0.69165
5552.86,0.69238
5547.07,0.69307
5541.29,0.69229
5535.5,0.69515
5529.71,0.69463
5523.93,0.69813
5518.14,0.70079
5512.35,0.70173
5506.57,0.70623
5500.78,0.70857
5495,0.70938
5489.21,0.70530
5483.42,0.70131
5477.64,0.69993
5471.85,0.69857
5466.06,0.70039
5460.28,0.70285
5454.49,0.70842
5448.71,0.71668
5442.92,0.71790
5437.13,0.72304
5431.35,0.72483
5425.56,0.72782
5419.77,0.72853
5413.99,0.72948
5408.2,0.73075
5402.42,0.72940
5396.63,0.72816
5390.84,0.72825
5385.06,0.72910
5379.27,0.72887
5373.48,0.72966
5367.7,0.73008
5361.91,0.72888
5356.13,0.72769
5350.34,0.72675
5344.55,0.72760
5338.77,0.72932
5332.98,0.73073
5327.19,0.73024
5321.41,0.73279
5315.62,0.73449
5309.84,0.73708
5304.05,0.73465
5298.26,0.73117
5292.48,0.73186
5286.69,0.72969
5280.9,0.72738
5275.12,0.72512
5269.33,0.72001
5263.55,0.71727
5257.76,0.71813
5251.97,0.72100
5246.19,0.72259
5240.4,0.72638
5234.61,0.72654
5228.83,0.72649
5223.04,0.72644
5217.26,0.72408
5211.47,0.72419
5205.68,0.72480
5199.9,0.72395
5194.11,0.72381
5188.32,0.72358
5182.54,0.72242
5176.75,0.72071
5170.97,0.71898
5165.18,0.71902
5159.39,0.71778
5153.61,0.71598
5147.82,0.71237
5142.03,0.70774
5136.25,0.70172
5130.46,0.69708
5124.68,0.68876
5118.89,0.68403
5113.1,0.68028
5107.32,0.68129
5101.53,0.67873
5095.75,0.67760
5089.96,0.67914
5084.17,0.68843
5078.39,0.69896
5072.6,0.70946
5066.81,0.71712
5061.03,0.72209
5055.24,0.72571
5049.46,0.72956
5043.67,0.72871
5037.88,0.72917
5032.1,0.72805
5026.31,0.72699
5020.52,0.72543
5014.74,0.72519
5008.95,0.72556
5003.17,0.72784
4997.38,0.72821
4991.59,0.72659
4985.81,0.72622
4980.02,0.72883
4974.23,0.73001
4968.45,0.73135
4962.66,0.73031
4956.88,0.72890
4951.09,0.72687
4945.3,0.72451
4939.52,0.72082
4933.73,0.72081
4927.94,0.71850
4922.16,0.71838
4916.37,0.71686
4910.59,0.71613
4904.8,0.71603
4899.01,0.71328
4893.23,0.71322
4887.44,0.71050
4881.65,0.71049
4875.87,0.70747
4870.08,0.70691
4864.3,0.70414
4858.51,0.70335
4852.72,0.70038
4846.94,0.69837
4841.15,0.69211
4835.36,0.68253
4829.58,0.67230
4823.79,0.65997
4818.01,0.64751
4812.22,0.64168
4806.43,0.63544
4800.65,0.63061
4794.86,0.62734
4789.07,0.62825
4783.29,0.63201
4777.5,0.63958
4771.72,0.64477
4765.93,0.65097
4760.14,0.65153
4754.36,0.64468
4748.57,0.63271
4742.78,0.61963
4737,0.60197
4731.21,0.57539
4725.43,0.53912
4719.64,0.51038
4713.85,0.50515
4708.07,0.49860
4702.28,0.47936
4696.49,0.44802
4690.71,0.42492
4684.92,0.42500
4679.14,0.44634
4673.35,0.47799
4667.56,0.50323
4661.78,0.51413
4655.99,0.51707
4650.2,0.51119
4644.42,0.49037
4638.63,0.46751
4632.85,0.46294
4627.06,0.48347
4621.27,0.51730
4615.49,0.54681
4609.7,0.56683
4603.92,0.57417
4598.13,0.56433
4592.34,0.54379
4586.56,0.52978
4580.77,0.51281
4574.98,0.51652
4569.2,0.55289
4563.41,0.58725
4557.63,0.60345
4551.84,0.60596
4546.05,0.60580
4540.27,0.60471
4534.48,0.60256
4528.69,0.59744
4522.91,0.59073
4517.12,0.58208
4511.34,0.56918
4505.55,0.55007
4499.76,0.52024
4493.98,0.48531
4488.19,0.46598
4482.4,0.46167
4476.62,0.45608
4470.83,0.44602
4465.05,0.42667
4459.26,0.40402
4453.47,0.38511
4447.69,0.36598
4441.9,0.34463
4436.11,0.32784
4430.33,0.31419
4424.54,0.30992
4418.76,0.31976
4412.97,0.33533
4407.18,0.34095
4401.4,0.34399
4395.61,0.35729
4389.82,0.36731
4384.04,0.36824
4378.25,0.36113
4372.47,0.34850
4366.68,0.33825
4360.89,0.33711
4355.11,0.33916
4349.32,0.34362
4343.53,0.35117
4337.75,0.35457
4331.96,0.35839
4326.18,0.36443
4320.39,0.37037
4314.6,0.37606
4308.82,0.37630
4303.03,0.37025
4297.24,0.36127
4291.46,0.35422
4285.67,0.35146
4279.89,0.34799
4274.1,0.34182
4268.31,0.33721
4262.53,0.34088
4256.74,0.34720
4250.95,0.35109
4245.17,0.35470
4239.38,0.35583
4233.6,0.35285
4227.81,0.34799
4222.02,0.34584
4216.24,0.34671
4210.45,0.34648
4204.66,0.34855
4198.88,0.35419
4193.09,0.35989
4187.31,0.35894
4181.52,0.34813
4175.73,0.34447
4169.95,0.35830
4164.16,0.37887
4158.37,0.39428
4152.59,0.40415
4146.8,0.41292
4141.02,0.41488
4135.23,0.40909
4129.44,0.40088
4123.66,0.39027
4117.87,0.37685
4112.09,0.35843
4106.3,0.33510
4100.51,0.30574
4094.73,0.26730
4088.94,0.24417
4083.15,0.26066
4077.37,0.28978
4071.58,0.31737
4065.8,0.33715
4060.01,0.35023
4054.22,0.35931
4048.44,0.36607
4042.65,0.37492
4036.86,0.38428
4031.08,0.38701
4025.29,0.38859
4019.51,0.39414
4013.72,0.39851
4007.93,0.40375
4002.15,0.41419
3996.36,0.42564
3990.57,0.43323
3984.79,0.44024
3979,0.44411
3973.22,0.44689
3967.43,0.44766
3961.64,0.44496
3955.86,0.43895
3950.07,0.43171
3944.28,0.42341
3938.5,0.41846
3932.71,0.41644
3926.93,0.41462
3921.14,0.41326
3915.35,0.41615
3909.57,0.42239
3903.78,0.43111
3897.99,0.43846
3892.21,0.44451
3886.42,0.45465
3880.64,0.46454
3874.85,0.47109
3869.06,0.47742
3863.28,0.48110
3857.49,0.48375
3851.7,0.48798
3845.92,0.49292
3840.13,0.49405
3834.35,0.48982
3828.56,0.48919
3822.77,0.49131
3816.99,0.48474
3811.2,0.47163
3805.41,0.46696
3799.63,0.48400
3793.84,0.50433
3788.06,0.51512
3782.27,0.51650
3776.48,0.50873
3770.7,0.49689
3764.91,0.48434
3759.12,0.47067
3753.34,0.47574
3747.55,0.50242
3741.77,0.51087
3735.98,0.49667
3730.19,0.49107
3724.41,0.50837
3718.62,0.51691
3712.83,0.51329
3707.05,0.50104
3701.26,0.48119
3695.48,0.45207
3689.69,0.41383
3683.9,0.41594
3678.12,0.46006
3672.33,0.50252
3666.54,0.52089
3660.76,0.52395
3654.97,0.51941
3649.19,0.51138
3643.4,0.50046
3637.61,0.49043
3631.83,0.48215
3626.04,0.47102
3620.25,0.45983
3614.47,0.44785
3608.68,0.43442
3602.9,0.41943
3597.11,0.40154
3591.32,0.38027
3585.54,0.35592
3579.75,0.33316
3573.97,0.31213
3568.18,0.29620
3562.39,0.28439
3556.61,0.27535
3550.82,0.27024
3545.03,0.26895
3539.25,0.27103
3533.46,0.27552
3527.68,0.28392
3521.89,0.29213
3516.1,0.30129
3510.32,0.31033
3504.53,0.31879
3498.74,0.32485
3492.96,0.32925
3487.17,0.33228
3481.39,0.33068
3475.6,0.32696
3469.81,0.31786
3464.03,0.30351
3458.24,0.28404
3452.45,0.26096
3446.67,0.23237
3440.88,0.20549
3435.1,0.18125
3429.31,0.16794
3423.52,0.16709
3417.74,0.16733
3411.95,0.17036
3406.16,0.19844
3400.38,0.24776
3394.59,0.28750
3388.81,0.31096
3383.02,0.32457
3377.23,0.33476
3371.45,0.33934
3365.66,0.33937
3359.87,0.33692
3354.09,0.32935
3348.3,0.31807
3342.52,0.30338
3336.73,0.29067
3330.94,0.28228
3325.16,0.28675
3319.37,0.30464
3313.58,0.31613
3307.8,0.31772
3302.01,0.31250
3296.23,0.30735
3290.44,0.30481
3284.65,0.31170
3278.87,0.32136
3273.08,0.32626
3267.29,0.32885
3261.51,0.32847
3255.72,0.32841
3249.94,0.32558
3244.15,0.32217
3238.36,0.31760
3232.58,0.31314
3226.79,0.30928
3221,0.30922
3215.22,0.31505
3209.43,0.32009
3203.65,0.31983
3197.86,0.31678
3192.07,0.31206
3186.29,0.30900
3180.5,0.30646
3174.71,0.30313
3168.93,0.30014
3163.14,0.29614
3157.36,0.29065
3151.57,0.28401
3145.78,0.27517
3140,0.26404
3134.21,0.24802
3128.42,0.23175
3122.64,0.23134
3116.85,0.23162
3111.07,0.21633
3105.28,0.19697
3099.49,0.19174
3093.71,0.19842
3087.92,0.18493
3082.14,0.16790
3076.35,0.16410
3070.56,0.15997
3064.78,0.15657
3058.99,0.15476
3053.2,0.15409
3047.42,0.18532
3041.63,0.21473
3035.85,0.21824
3030.06,0.20685
3024.27,0.18608
3018.49,0.15835
3012.7,0.13120
3006.91,0.10790
3001.13,0.08556
2995.34,0.06659
2989.56,0.04964
2983.77,0.03793
2977.98,0.03434
2972.2,0.03347
2966.41,0.03403
2960.62,0.03592
2954.84,0.04282
2949.05,0.05467
2943.27,0.06728
2937.48,0.07469
2931.69,0.07831
2925.91,0.07912
2920.12,0.07810
2914.33,0.07314
2908.55,0.05866
2902.76,0.05106
2896.98,0.06427
2891.19,0.08271
2885.4,0.09598
2879.62,0.10580
2873.83,0.11278
2868.04,0.11611
2862.26,0.11804
2856.47,0.12158
2850.69,0.13167
2844.9,0.15507
2839.11,0.17459
2833.33,0.18819
2827.54,0.20492
2821.75,0.22579
2815.97,0.23973
2810.18,0.24364
2804.4,0.24651
2798.61,0.25669
2792.82,0.26336
2787.04,0.26478
2781.25,0.26582
2775.46,0.26737
2769.68,0.27116
2763.89,0.28367
2758.11,0.29610
2752.32,0.30353
2746.53,0.30419
2740.75,0.30409
2734.96,0.31528
2729.17,0.33164
2723.39,0.34295
2717.6,0.34527
2711.82,0.34482
2706.03,0.35460
2700.24,0.36328
2694.46,0.36733
2688.67,0.36801
2682.88,0.36705
2677.1,0.36812
2671.31,0.36644
2665.53,0.36377
2659.74,0.36067
2653.95,0.35516
2648.17,0.34669
2642.38,0.33661
2636.59,0.32475
2630.81,0.31302
2625.02,0.31453
2619.24,0.32129
2613.45,0.32808
2607.66,0.33045
2601.88,0.32993
2596.09,0.32396
2590.3,0.31095
2584.52,0.29768
2578.73,0.29053
2572.95,0.29232
2567.16,0.29496
2561.37,0.29113
2555.59,0.28593
2549.8,0.28077
2544.02,0.27796
2538.23,0.27679
2532.44,0.28032
2526.66,0.28797
2520.87,0.29752
2515.08,0.30655
2509.3,0.31559
2503.51,0.32569
2497.73,0.33100
2491.94,0.33393
2486.15,0.33650
2480.37,0.34461
2474.58,0.35543
2468.79,0.36231
2463.01,0.36339
2457.22,0.36268
2451.44,0.35913
2445.65,0.35366
2439.86,0.33941
2434.08,0.31678
2428.29,0.29840
2422.5,0.28200
2416.72,0.26492
2410.93,0.25093
2405.15,0.24054
2399.36,0.23059
2393.57,0.22320
2387.79,0.21946
2382,0.21915
2376.21,0.22094
2370.43,0.22881
2364.64,0.24425
2358.86,0.26521
2353.07,0.28671
2347.28,0.30583
2341.5,0.32240
2335.71,0.33426
2329.92,0.33620
2324.14,0.33440
2318.35,0.34931
2312.57,0.35900
2306.78,0.35484
2300.99,0.34231
2295.21,0.32112
2289.42,0.29740
2283.63,0.28528
2277.85,0.29017
2272.06,0.30196
2266.28,0.30557
2260.49,0.30201
2254.7,0.29381
2248.92,0.28346
2243.13,0.27743
2237.34,0.27643
2231.56,0.27453
2225.77,0.27434
2219.99,0.27548
2214.2,0.27259
2208.41,0.27124
2202.63,0.28160
2196.84,0.28931
2191.05,0.29345
2185.27,0.30161
2179.48,0.30879
2173.7,0.30931
2167.91,0.30376
2162.12,0.29533
2156.34,0.28599
2150.55,0.27729
2144.76,0.27236
2138.98,0.26761
2133.19,0.26417
2127.41,0.25967
2121.62,0.25466
2115.83,0.24946
2110.05,0.24848
2104.26,0.24802
2098.47,0.24786
2092.69,0.24989
2086.9,0.25303
2081.12,0.25769
2075.33,0.26222
2069.54,0.26316
2063.76,0.26063
2057.97,0.26216
2052.19,0.26915
2046.4,0.27628
2040.61,0.27301
2034.83,0.26362
2029.04,0.25775
2023.25,0.26084
2017.47,0.25983
2011.68,0.26072
2005.9,0.26275
2000.11,0.25593
1994.32,0.24543
1988.54,0.23727
1982.75,0.23328
1976.96,0.22267
1971.18,0.20487
1965.39,0.17996
1959.61,0.15262
1953.82,0.13345
1948.03,0.14142
1942.25,0.16999
1936.46,0.19760
1930.67,0.22065
1924.89,0.23977
1919.1,0.25361
1913.32,0.26008
1907.53,0.26031
1901.74,0.25341
1895.96,0.24600
1890.17,0.23866
1884.38,0.23052
1878.6,0.23036
1872.81,0.22881
1867.03,0.21867
1861.24,0.20760
1855.45,0.19609
1849.67,0.17824
1843.88,0.15559
1838.09,0.13632
1832.31,0.12056
1826.52,0.10858
1820.74,0.10564
1814.95,0.10515
1809.16,0.10190
1803.38,0.09734
1797.59,0.09348
1791.8,0.08977
1786.02,0.08331
1780.23,0.07583
1774.45,0.06838
1768.66,0.05941
1762.87,0.04918
1757.09,0.03827
1751.3,0.02773
1745.51,0.01989
1739.73,0.01605
1733.94,0.01677
1728.16,0.02123
1722.37,0.02755
1716.58,0.03276
1710.8,0.03143
1705.01,0.02848
1699.22,0.03146
1693.44,0.03700
1687.65,0.04272
1681.87,0.04474
1676.08,0.04637
1670.29,0.05539
1664.51,0.07413
1658.72,0.09020
1652.93,0.09986
1647.15,0.10631
1641.36,0.11197
1635.58,0.11749
1629.79,0.12347
1624,0.12498
1618.22,0.11203
1612.43,0.09994
1606.64,0.11743
1600.86,0.13681
1595.07,0.13949
1589.29,0.12662
1583.5,0.09125
1577.71,0.06530
1571.93,0.09104
1566.14,0.11994
1560.35,0.13041
1554.57,0.13230
1548.78,0.13536
1543,0.13306
1537.21,0.11910
1531.42,0.09875
1525.64,0.09324
1519.85,0.09410
1514.07,0.07834
1508.28,0.04258
1502.49,0.03665
1496.71,0.08385
1490.92,0.10136
1485.13,0.07917
1479.35,0.05017
1473.56,0.03106
1467.78,0.02558
1461.99,0.02746
1456.2,0.03243
1450.42,0.03932
1444.63,0.04829
1438.84,0.05253
1433.06,0.05054
1427.27,0.03916
1421.49,0.02847
1415.7,0.02048
1409.91,0.01822
1404.13,0.02193
1398.34,0.02458
1392.55,0.02321
1386.77,0.02343
1380.98,0.02491
1375.2,0.02714
1369.41,0.02936
1363.62,0.02715
1357.84,0.02409
1352.05,0.02839
1346.26,0.03128
1340.48,0.02740
1334.69,0.02265
1328.91,0.02038
1323.12,0.01821
1317.33,0.01665
1311.55,0.01511
1305.76,0.01424
1299.97,0.01523
1294.19,0.01761
1288.4,0.02149
1282.62,0.02809
1276.83,0.03546
1271.04,0.03930
1265.26,0.03914
1259.47,0.03641
1253.68,0.03567
1247.9,0.03801
1242.11,0.03578
1236.33,0.03425
1230.54,0.03444
1224.75,0.03599
1218.97,0.04174
1213.18,0.05300
1207.39,0.05915
1201.61,0.06498
1195.82,0.07499
1190.04,0.07978
1184.25,0.07067
1178.46,0.05290
1172.68,0.04499
1166.89,0.04713
1161.1,0.04283
1155.32,0.03378
1149.53,0.02401
1143.75,0.01942
1137.96,0.01714
1132.17,0.02050
1126.39,0.02700
1120.6,0.02691
1114.81,0.02482
1109.03,0.02504
1103.24,0.02942
1097.46,0.03058
1091.67,0.02831
1085.88,0.02885
1080.1,0.03485
1074.31,0.04824
1068.52,0.06186
1062.74,0.06543
1056.95,0.05803
1051.17,0.04031
1045.38,0.02972
1039.59,0.03114
1033.81,0.03266
1028.02,0.02999
1022.24,0.02645
1016.45,0.03182
1010.66,0.06549
1004.88,0.10522
999.09,0.12069
993.304,0.11592
987.518,0.09928
981.731,0.08185
975.945,0.07131
970.159,0.07531
964.373,0.08773
958.586,0.08611
952.8,0.06736
947.014,0.06103
941.228,0.06248
935.441,0.06030
929.655,0.07007
923.869,0.08732
918.083,0.09620
912.297,0.09425
906.51,0.08771
900.724,0.09307
894.938,0.10180
889.152,0.10271
883.365,0.07713
877.579,0.04287
871.793,0.03573
866.007,0.07528
860.22,0.08569
854.434,0.07090
848.648,0.06880
842.862,0.07723
837.075,0.09567
831.289,0.10618
825.503,0.10754
819.717,0.10662
813.931,0.10860
808.144,0.11147
802.358,0.11668
796.572,0.08554
790.786,0.10189
784.999,0.13357
779.213,0.13077
773.427,0.11922
767.641,0.12538
761.854,0.12782
756.068,0.12013
750.282,0.10301
744.496,0.06330
738.709,0.02356
732.923,0.02027
727.137,0.02998
721.351,0.04331
715.565,0.08740
709.778,0.10762
703.992,0.11642
698.206,0.15954
692.42,0.18703
686.633,0.18631
680.847,0.17483
675.061,0.18960
669.275,0.20125
663.488,0.20938
657.702,0.21219
651.916,0.21575
646.13,0.22005
640.343,0.21812
634.557,0.19107
628.771,0.20404
622.985,0.23132
617.198,0.23594
611.412,0.24220
605.626,0.24059
599.84,0.24130