File: 01_Data/Triexta_Carpet_High_Pile/FTIR/IS/Triexta_Carpet_High_Pile_IS_S_221121_R8.dpt
7497.03,0.83556
7491.25,0.86411
7485.46,0.84110
7479.67,0.84792
7473.89,0.83815
7468.1,0.83624
7462.32,0.84170
7456.53,0.82867
7450.74,0.83644
7444.96,0.82871
7439.17,0.83356
7433.38,0.82573
7427.6,0.82767
7421.81,0.83252
7416.03,0.82406
7410.24,0.82352
7404.45,0.81896
7398.67,0.81940
7392.88,0.81579
7387.09,0.81638
7381.31,0.81794
7375.52,0.80865
7369.74,0.80089
7363.95,0.80247
7358.16,0.80428
7352.38,0.80632
7346.59,0.79513
7340.8,0.80054
7335.02,0.79604
7329.23,0.79713
7323.45,0.77970
7317.66,0.79567
7311.87,0.79831
7306.09,0.79225
7300.3,0.78592
7294.51,0.79878
7288.73,0.80020
7282.94,0.78918
7277.16,0.79792
7271.37,0.79075
7265.58,0.80232
7259.8,0.78896
7254.01,0.78591
7248.22,0.79002
7242.44,0.78842
7236.65,0.78187
7230.87,0.77739
7225.08,0.78228
7219.29,0.77449
7213.51,0.77021
7207.72,0.77829
7201.93,0.78272
7196.15,0.78839
7190.36,0.77094
7184.58,0.77895
7178.79,0.77731
7173,0.78165
7167.22,0.78642
7161.43,0.78143
7155.65,0.77869
7149.86,0.78823
7144.07,0.78915
7138.29,0.78608
7132.5,0.78935
7126.71,0.78939
7120.93,0.79361
7115.14,0.78896
7109.36,0.78245
7103.57,0.78034
7097.78,0.78321
7092,0.78404
7086.21,0.78702
7080.42,0.77966
7074.64,0.78641
7068.85,0.78752
7063.07,0.78652
7057.28,0.77408
7051.49,0.78144
7045.71,0.77753
7039.92,0.77507
7034.13,0.77651
7028.35,0.77505
7022.56,0.77809
7016.78,0.77720
7010.99,0.77423
7005.2,0.77745
6999.42,0.77934
6993.63,0.78513
6987.84,0.78395
6982.06,0.79826
6976.27,0.79918
6970.49,0.79380
6964.7,0.79834
6958.91,0.79484
6953.13,0.80174
6947.34,0.81162
6941.55,0.80253
6935.77,0.79463
6929.98,0.79958
6924.2,0.80342
6918.41,0.79596
6912.62,0.80329
6906.84,0.79856
6901.05,0.80247
6895.26,0.80103
6889.48,0.80465
6883.69,0.80578
6877.91,0.80582
6872.12,0.80298
6866.33,0.80967
6860.55,0.80870
6854.76,0.81067
6848.97,0.80916
6843.19,0.80955
6837.4,0.81528
6831.62,0.81452
6825.83,0.81602
6820.04,0.81700
6814.26,0.82567
6808.47,0.82115
6802.68,0.83002
6796.9,0.82949
6791.11,0.82074
6785.33,0.82152
6779.54,0.82567
6773.75,0.82569
6767.97,0.82322
6762.18,0.82178
6756.39,0.82607
6750.61,0.82115
6744.82,0.82277
6739.04,0.82932
6733.25,0.82773
6727.46,0.82531
6721.68,0.83031
6715.89,0.83114
6710.1,0.83573
6704.32,0.83161
6698.53,0.83219
6692.75,0.83000
6686.96,0.83077
6681.17,0.84059
6675.39,0.83799
6669.6,0.82987
6663.82,0.83800
6658.03,0.83823
6652.24,0.83499
6646.46,0.83701
6640.67,0.83578
6634.88,0.83742
6629.1,0.83851
6623.31,0.84015
6617.53,0.84111
6611.74,0.84650
6605.95,0.83899
6600.17,0.83753
6594.38,0.84288
6588.59,0.83960
6582.81,0.84242
6577.02,0.84183
6571.24,0.83964
6565.45,0.84512
6559.66,0.84788
6553.88,0.84817
6548.09,0.84350
6542.3,0.83953
6536.52,0.84273
6530.73,0.84165
6524.95,0.84213
6519.16,0.83916
6513.37,0.84134
6507.59,0.84832
6501.8,0.84452
6496.01,0.84309
6490.23,0.84429
6484.44,0.84019
6478.66,0.84115
6472.87,0.84037
6467.08,0.84520
6461.3,0.84427
6455.51,0.84559
6449.72,0.84391
6443.94,0.84106
6438.15,0.83867
6432.37,0.83769
6426.58,0.84438
6420.79,0.84504
6415.01,0.84254
6409.22,0.84385
6403.43,0.83752
6397.65,0.83986
6391.86,0.84436
6386.08,0.83936
6380.29,0.83925
6374.5,0.84174
6368.72,0.83920
6362.93,0.84088
6357.14,0.84437
6351.36,0.84082
6345.57,0.84055
6339.79,0.83834
6334,0.83759
6328.21,0.83083
6322.43,0.83406
6316.64,0.83669
6310.85,0.83923
6305.07,0.83877
6299.28,0.83667
6293.5,0.83400
6287.71,0.83364
6281.92,0.83026
6276.14,0.83140
6270.35,0.82924
6264.56,0.82433
6258.78,0.82808
6252.99,0.82908
6247.21,0.82252
6241.42,0.82221
6235.63,0.82015
6229.85,0.82562
6224.06,0.81886
6218.27,0.81408
6212.49,0.80457
6206.7,0.79640
6200.92,0.78308
6195.13,0.77554
6189.34,0.77759
6183.56,0.77908
6177.77,0.78336
6171.98,0.78187
6166.2,0.78242
6160.41,0.77331
6154.63,0.76891
6148.84,0.76423
6143.05,0.76341
6137.27,0.75508
6131.48,0.75425
6125.7,0.75031
6119.91,0.74050
6114.12,0.72519
6108.34,0.70529
6102.55,0.68275
6096.76,0.65946
6090.98,0.63776
6085.19,0.61840
6079.41,0.60381
6073.62,0.58932
6067.83,0.56041
6062.05,0.53141
6056.26,0.51553
6050.47,0.50371
6044.69,0.49153
6038.9,0.48195
6033.12,0.47914
6027.33,0.46899
6021.54,0.46745
6015.76,0.47403
6009.97,0.48537
6004.18,0.50315
5998.4,0.52150
5992.61,0.54406
5986.83,0.55723
5981.04,0.56525
5975.25,0.57196
5969.47,0.57873
5963.68,0.58049
5957.89,0.57824
5952.11,0.56802
5946.32,0.55875
5940.54,0.55737
5934.75,0.56681
5928.96,0.57631
5923.18,0.58947
5917.39,0.60105
5911.6,0.60992
5905.82,0.61275
5900.03,0.61494
5894.25,0.61215
5888.46,0.61154
5882.67,0.61559
5876.89,0.62077
5871.1,0.62438
5865.31,0.62962
5859.53,0.63482
5853.74,0.63720
5847.96,0.63564
5842.17,0.63082
5836.38,0.62381
5830.6,0.61746
5824.81,0.60665
5819.02,0.59532
5813.24,0.58310
5807.45,0.57696
5801.67,0.57678
5795.88,0.57354
5790.09,0.58051
5784.31,0.58972
5778.52,0.59945
5772.73,0.61300
5766.95,0.61559
5761.16,0.61800
5755.38,0.62247
5749.59,0.62562
5743.8,0.62453
5738.02,0.63063
5732.23,0.63555
5726.44,0.64188
5720.66,0.64543
5714.87,0.64895
5709.09,0.65547
5703.3,0.65927
5697.51,0.66373
5691.73,0.66498
5685.94,0.66647
5680.15,0.67200
5674.37,0.67249
5668.58,0.67636
5662.8,0.67463
5657.01,0.67493
5651.22,0.67660
5645.44,0.67643
5639.65,0.68239
5633.87,0.68856
5628.08,0.69639
5622.29,0.70190
5616.51,0.70552
5610.72,0.70774
5604.93,0.71041
5599.15,0.70943
5593.36,0.70571
5587.58,0.70428
5581.79,0.70163
5576,0.69862
5570.22,0.69680
5564.43,0.69452
5558.64,0.69165
5552.86,0.69067
5547.07,0.69127
5541.29,0.69253
5535.5,0.69331
5529.71,0.69561
5523.93,0.69748
5518.14,0.70128
5512.35,0.70462
5506.57,0.70499
5500.78,0.70956
5495,0.71078
5489.21,0.70474
5483.42,0.70036
5477.64,0.69873
5471.85,0.70046
5466.06,0.70258
5460.28,0.70553
5454.49,0.71159
5448.71,0.71637
5442.92,0.71784
5437.13,0.72454
5431.35,0.72608
5425.56,0.72784
5419.77,0.72857
5413.99,0.72881
5408.2,0.72839
5402.42,0.72801
5396.63,0.72833
5390.84,0.73135
5385.06,0.73055
5379.27,0.72988
5373.48,0.72864
5367.7,0.73065
5361.91,0.72844
5356.13,0.72797
5350.34,0.72810
5344.55,0.72557
5338.77,0.72675
5332.98,0.73171
5327.19,0.73142
5321.41,0.73559
5315.62,0.73602
5309.84,0.73633
5304.05,0.73548
5298.26,0.73475
5292.48,0.73193
5286.69,0.72900
5280.9,0.72641
5275.12,0.72424
5269.33,0.71982
5263.55,0.71848
5257.76,0.71894
5251.97,0.72018
5246.19,0.72468
5240.4,0.72401
5234.61,0.72492
5228.83,0.72519
5223.04,0.72621
5217.26,0.72412
5211.47,0.72451
5205.68,0.72337
5199.9,0.72408
5194.11,0.72318
5188.32,0.72145
5182.54,0.72271
5176.75,0.72086
5170.97,0.71868
5165.18,0.71908
5159.39,0.71702
5153.61,0.71692
5147.82,0.71120
5142.03,0.70680
5136.25,0.70186
5130.46,0.69724
5124.68,0.68882
5118.89,0.68250
5113.1,0.68037
5107.32,0.67919
5101.53,0.67883
5095.75,0.67757
5089.96,0.67929
5084.17,0.68624
5078.39,0.69919
5072.6,0.70828
5066.81,0.71849
5061.03,0.72397
5055.24,0.72602
5049.46,0.72871
5043.67,0.72938
5037.88,0.72862
5032.1,0.72786
5026.31,0.72694
5020.52,0.72609
5014.74,0.72516
5008.95,0.72641
5003.17,0.72591
4997.38,0.72592
4991.59,0.72563
4985.81,0.72784
4980.02,0.72933
4974.23,0.73013
4968.45,0.73155
4962.66,0.73099
4956.88,0.72874
4951.09,0.72561
4945.3,0.72187
4939.52,0.71972
4933.73,0.71871
4927.94,0.71884
4922.16,0.71813
4916.37,0.71726
4910.59,0.71621
4904.8,0.71608
4899.01,0.71323
4893.23,0.71368
4887.44,0.71333
4881.65,0.71073
4875.87,0.70853
4870.08,0.70636
4864.3,0.70393
4858.51,0.70300
4852.72,0.70076
4846.94,0.69768
4841.15,0.69358
4835.36,0.68323
4829.58,0.67159
4823.79,0.65958
4818.01,0.64806
4812.22,0.64004
4806.43,0.63492
4800.65,0.62953
4794.86,0.62568
4789.07,0.62746
4783.29,0.63250
4777.5,0.63945
4771.72,0.64349
4765.93,0.65106
4760.14,0.65090
4754.36,0.64543
4748.57,0.63310
4742.78,0.61831
4737,0.60047
4731.21,0.57546
4725.43,0.53972
4719.64,0.51088
4713.85,0.50357
4708.07,0.49857
4702.28,0.47978
4696.49,0.44780
4690.71,0.42403
4684.92,0.42590
4679.14,0.44623
4673.35,0.47788
4667.56,0.50273
4661.78,0.51365
4655.99,0.51611
4650.2,0.51232
4644.42,0.49197
4638.63,0.46787
4632.85,0.46391
4627.06,0.48455
4621.27,0.51685
4615.49,0.54722
4609.7,0.56630
4603.92,0.57323
4598.13,0.56567
4592.34,0.54286
4586.56,0.53008
4580.77,0.51365
4574.98,0.51663
4569.2,0.55250
4563.41,0.58675
4557.63,0.60310
4551.84,0.60675
4546.05,0.60617
4540.27,0.60409
4534.48,0.60142
4528.69,0.59733
4522.91,0.59081
4517.12,0.58150
4511.34,0.56869
4505.55,0.54958
4499.76,0.52099
4493.98,0.48490
4488.19,0.46545
4482.4,0.46119
4476.62,0.45674
4470.83,0.44635
4465.05,0.42664
4459.26,0.40282
4453.47,0.38426
4447.69,0.36618
4441.9,0.34493
4436.11,0.32733
4430.33,0.31581
4424.54,0.30950
4418.76,0.31952
4412.97,0.33602
4407.18,0.34160
4401.4,0.34512
4395.61,0.35660
4389.82,0.36603
4384.04,0.36898
4378.25,0.36112
4372.47,0.34805
4366.68,0.33880
4360.89,0.33775
4355.11,0.33899
4349.32,0.34345
4343.53,0.34991
4337.75,0.35465
4331.96,0.35853
4326.18,0.36485
4320.39,0.37052
4314.6,0.37633
4308.82,0.37741
4303.03,0.37040
4297.24,0.36161
4291.46,0.35451
4285.67,0.35258
4279.89,0.34894
4274.1,0.34211
4268.31,0.33736
4262.53,0.34042
4256.74,0.34661
4250.95,0.35150
4245.17,0.35456
4239.38,0.35506
4233.6,0.35261
4227.81,0.34875
4222.02,0.34658
4216.24,0.34710
4210.45,0.34678
4204.66,0.34772
4198.88,0.35344
4193.09,0.35944
4187.31,0.35913
4181.52,0.34884
4175.73,0.34461
4169.95,0.35850
4164.16,0.37887
4158.37,0.39485
4152.59,0.40466
4146.8,0.41252
4141.02,0.41512
4135.23,0.40954
4129.44,0.40079
4123.66,0.39061
4117.87,0.37697
4112.09,0.35907
4106.3,0.33526
4100.51,0.30539
4094.73,0.26643
4088.94,0.24432
4083.15,0.25995
4077.37,0.28979
4071.58,0.31707
4065.8,0.33716
4060.01,0.35052
4054.22,0.35908
4048.44,0.36637
4042.65,0.37603
4036.86,0.38414
4031.08,0.38648
4025.29,0.38849
4019.51,0.39486
4013.72,0.39827
4007.93,0.40319
4002.15,0.41349
3996.36,0.42485
3990.57,0.43384
3984.79,0.44038
3979,0.44426
3973.22,0.44658
3967.43,0.44747
3961.64,0.44380
3955.86,0.43877
3950.07,0.43148
3944.28,0.42293
3938.5,0.41901
3932.71,0.41727
3926.93,0.41408
3921.14,0.41276
3915.35,0.41514
3909.57,0.42229
3903.78,0.43089
3897.99,0.43894
3892.21,0.44508
3886.42,0.45460
3880.64,0.46492
3874.85,0.47165
3869.06,0.47708
3863.28,0.48131
3857.49,0.48341
3851.7,0.48807
3845.92,0.49325
3840.13,0.49431
3834.35,0.48996
3828.56,0.48855
3822.77,0.49088
3816.99,0.48407
3811.2,0.47165
3805.41,0.46762
3799.63,0.48348
3793.84,0.50361
3788.06,0.51521
3782.27,0.51643
3776.48,0.50929
3770.7,0.49769
3764.91,0.48462
3759.12,0.47044
3753.34,0.47593
3747.55,0.50215
3741.77,0.51085
3735.98,0.49684
3730.19,0.49131
3724.41,0.50799
3718.62,0.51743
3712.83,0.51378
3707.05,0.50131
3701.26,0.48111
3695.48,0.45192
3689.69,0.41374
3683.9,0.41721
3678.12,0.46154
3672.33,0.50362
3666.54,0.52230
3660.76,0.52633
3654.97,0.52248
3649.19,0.51413
3643.4,0.50319
3637.61,0.49302
3631.83,0.48381
3626.04,0.47352
3620.25,0.46187
3614.47,0.44945
3608.68,0.43590
3602.9,0.42054
3597.11,0.40170
3591.32,0.38058
3585.54,0.35657
3579.75,0.33379
3573.97,0.31280
3568.18,0.29677
3562.39,0.28370
3556.61,0.27586
3550.82,0.27080
3545.03,0.26948
3539.25,0.27212
3533.46,0.27675
3527.68,0.28361
3521.89,0.29268
3516.1,0.30178
3510.32,0.31078
3504.53,0.31896
3498.74,0.32550
3492.96,0.32966
3487.17,0.33255
3481.39,0.33183
3475.6,0.32753
3469.81,0.31860
3464.03,0.30403
3458.24,0.28403
3452.45,0.25985
3446.67,0.23294
3440.88,0.20599
3435.1,0.18208
3429.31,0.16795
3423.52,0.16654
3417.74,0.16765
3411.95,0.17056
3406.16,0.19810
3400.38,0.24792
3394.59,0.28688
3388.81,0.31014
3383.02,0.32487
3377.23,0.33520
3371.45,0.34052
3365.66,0.34058
3359.87,0.33692
3354.09,0.33002
3348.3,0.31852
3342.52,0.30423
3336.73,0.29141
3330.94,0.28291
3325.16,0.28702
3319.37,0.30453
3313.58,0.31692
3307.8,0.31773
3302.01,0.31316
3296.23,0.30738
3290.44,0.30490
3284.65,0.31141
3278.87,0.32143
3273.08,0.32689
3267.29,0.32878
3261.51,0.32843
3255.72,0.32738
3249.94,0.32595
3244.15,0.32251
3238.36,0.31859
3232.58,0.31294
3226.79,0.30966
3221,0.30892
3215.22,0.31567
3209.43,0.32049
3203.65,0.32113
3197.86,0.31672
3192.07,0.31266
3186.29,0.30945
3180.5,0.30742
3174.71,0.30478
3168.93,0.30067
3163.14,0.29626
3157.36,0.29086
3151.57,0.28381
3145.78,0.27524
3140,0.26413
3134.21,0.24820
3128.42,0.23104
3122.64,0.23133
3116.85,0.23086
3111.07,0.21624
3105.28,0.19648
3099.49,0.19166
3093.71,0.19849
3087.92,0.18451
3082.14,0.16725
3076.35,0.16404
3070.56,0.15918
3064.78,0.15662
3058.99,0.15518
3053.2,0.15444
3047.42,0.18523
3041.63,0.21522
3035.85,0.21825
3030.06,0.20666
3024.27,0.18657
3018.49,0.15846
3012.7,0.13135
3006.91,0.10755
3001.13,0.08554
2995.34,0.06705
2989.56,0.04957
2983.77,0.03803
2977.98,0.03451
2972.2,0.03262
2966.41,0.03335
2960.62,0.03581
2954.84,0.04269
2949.05,0.05524
2943.27,0.06743
2937.48,0.07524
2931.69,0.07821
2925.91,0.07899
2920.12,0.07756
2914.33,0.07341
2908.55,0.05870
2902.76,0.05140
2896.98,0.06455
2891.19,0.08260
2885.4,0.09618
2879.62,0.10607
2873.83,0.11252
2868.04,0.11578
2862.26,0.11788
2856.47,0.12180
2850.69,0.13187
2844.9,0.15509
2839.11,0.17468
2833.33,0.18843
2827.54,0.20457
2821.75,0.22543
2815.97,0.23948
2810.18,0.24373
2804.4,0.24696
2798.61,0.25638
2792.82,0.26337
2787.04,0.26478
2781.25,0.26558
2775.46,0.26739
2769.68,0.27167
2763.89,0.28362
2758.11,0.29612
2752.32,0.30338
2746.53,0.30427
2740.75,0.30414
2734.96,0.31559
2729.17,0.33165
2723.39,0.34305
2717.6,0.34492
2711.82,0.34492
2706.03,0.35431
2700.24,0.36334
2694.46,0.36710
2688.67,0.36873
2682.88,0.36736
2677.1,0.36839
2671.31,0.36639
2665.53,0.36330
2659.74,0.36109
2653.95,0.35588
2648.17,0.34739
2642.38,0.33700
2636.59,0.32540
2630.81,0.31346
2625.02,0.31470
2619.24,0.32129
2613.45,0.32825
2607.66,0.33109
2601.88,0.33005
2596.09,0.32402
2590.3,0.31108
2584.52,0.29759
2578.73,0.29063
2572.95,0.29251
2567.16,0.29407
2561.37,0.29105
2555.59,0.28521
2549.8,0.28103
2544.02,0.27774
2538.23,0.27718
2532.44,0.28040
2526.66,0.28817
2520.87,0.29777
2515.08,0.30699
2509.3,0.31639
2503.51,0.32574
2497.73,0.33084
2491.94,0.33372
2486.15,0.33626
2480.37,0.34460
2474.58,0.35528
2468.79,0.36161
2463.01,0.36360
2457.22,0.36288
2451.44,0.35927
2445.65,0.35395
2439.86,0.33980
2434.08,0.31718
2428.29,0.29829
2422.5,0.28231
2416.72,0.26470
2410.93,0.25130
2405.15,0.24071
2399.36,0.23032
2393.57,0.22377
2387.79,0.21935
2382,0.21907
2376.21,0.22102
2370.43,0.22849
2364.64,0.24372
2358.86,0.26477
2353.07,0.28650
2347.28,0.30571
2341.5,0.32282
2335.71,0.33404
2329.92,0.33635
2324.14,0.33399
2318.35,0.34930
2312.57,0.35898
2306.78,0.35474
2300.99,0.34181
2295.21,0.32102
2289.42,0.29799
2283.63,0.28489
2277.85,0.29031
2272.06,0.30256
2266.28,0.30604
2260.49,0.30252
2254.7,0.29379
2248.92,0.28361
2243.13,0.27743
2237.34,0.27617
2231.56,0.27440
2225.77,0.27394
2219.99,0.27488
2214.2,0.27255
2208.41,0.27116
2202.63,0.28193
2196.84,0.28934
2191.05,0.29333
2185.27,0.30135
2179.48,0.30904
2173.7,0.30974
2167.91,0.30404
2162.12,0.29520
2156.34,0.28573
2150.55,0.27743
2144.76,0.27239
2138.98,0.26751
2133.19,0.26398
2127.41,0.26013
2121.62,0.25481
2115.83,0.24961
2110.05,0.24828
2104.26,0.24846
2098.47,0.24853
2092.69,0.25010
2086.9,0.25338
2081.12,0.25791
2075.33,0.26239
2069.54,0.26308
2063.76,0.26110
2057.97,0.26213
2052.19,0.26948
2046.4,0.27616
2040.61,0.27317
2034.83,0.26282
2029.04,0.25781
2023.25,0.26086
2017.47,0.25999
2011.68,0.26089
2005.9,0.26266
2000.11,0.25615
1994.32,0.24561
1988.54,0.23716
1982.75,0.23355
1976.96,0.22291
1971.18,0.20532
1965.39,0.18015
1959.61,0.15307
1953.82,0.13322
1948.03,0.14091
1942.25,0.16966
1936.46,0.19713
1930.67,0.22035
1924.89,0.23995
1919.1,0.25348
1913.32,0.26005
1907.53,0.26001
1901.74,0.25375
1895.96,0.24583
1890.17,0.23912
1884.38,0.23071
1878.6,0.23008
1872.81,0.22886
1867.03,0.21895
1861.24,0.20771
1855.45,0.19603
1849.67,0.17834
1843.88,0.15579
1838.09,0.13639
1832.31,0.12039
1826.52,0.10822
1820.74,0.10547
1814.95,0.10544
1809.16,0.10216
1803.38,0.09758
1797.59,0.09385
1791.8,0.08960
1786.02,0.08338
1780.23,0.07571
1774.45,0.06810
1768.66,0.05914
1762.87,0.04889
1757.09,0.03765
1751.3,0.02773
1745.51,0.01983
1739.73,0.01611
1733.94,0.01678
1728.16,0.02152
1722.37,0.02799
1716.58,0.03328
1710.8,0.03184
1705.01,0.02877
1699.22,0.03124
1693.44,0.03732
1687.65,0.04279
1681.87,0.04529
1676.08,0.04655
1670.29,0.05535
1664.51,0.07442
1658.72,0.09015
1652.93,0.09940
1647.15,0.10603
1641.36,0.11197
1635.58,0.11774
1629.79,0.12310
1624,0.12510
1618.22,0.11240
1612.43,0.09963
1606.64,0.11777
1600.86,0.13657
1595.07,0.13954
1589.29,0.12605
1583.5,0.09157
1577.71,0.06529
1571.93,0.09098
1566.14,0.12033
1560.35,0.13035
1554.57,0.13275
1548.78,0.13535
1543,0.13296
1537.21,0.11957
1531.42,0.09866
1525.64,0.09316
1519.85,0.09453
1514.07,0.07835
1508.28,0.04237
1502.49,0.03695
1496.71,0.08380
1490.92,0.10149
1485.13,0.07889
1479.35,0.04999
1473.56,0.03115
1467.78,0.02584
1461.99,0.02724
1456.2,0.03279
1450.42,0.03921
1444.63,0.04871
1438.84,0.05225
1433.06,0.05060
1427.27,0.03939
1421.49,0.02866
1415.7,0.02055
1409.91,0.01832
1404.13,0.02207
1398.34,0.02528
1392.55,0.02350
1386.77,0.02318
1380.98,0.02468
1375.2,0.02692
1369.41,0.02967
1363.62,0.02693
1357.84,0.02422
1352.05,0.02865
1346.26,0.03150
1340.48,0.02750
1334.69,0.02275
1328.91,0.02050
1323.12,0.01861
1317.33,0.01657
1311.55,0.01502
1305.76,0.01401
1299.97,0.01485
1294.19,0.01719
1288.4,0.02088
1282.62,0.02823
1276.83,0.03598
1271.04,0.03950
1265.26,0.03909
1259.47,0.03652
1253.68,0.03583
1247.9,0.03752
1242.11,0.03591
1236.33,0.03405
1230.54,0.03475
1224.75,0.03652
1218.97,0.04156
1213.18,0.05271
1207.39,0.05881
1201.61,0.06501
1195.82,0.07508
1190.04,0.07954
1184.25,0.07077
1178.46,0.05276
1172.68,0.04513
1166.89,0.04704
1161.1,0.04272
1155.32,0.03340
1149.53,0.02440
1143.75,0.01951
1137.96,0.01700
1132.17,0.02090
1126.39,0.02742
1120.6,0.02658
1114.81,0.02503
1109.03,0.02591
1103.24,0.03000
1097.46,0.03022
1091.67,0.02898
1085.88,0.02915
1080.1,0.03403
1074.31,0.04804
1068.52,0.06106
1062.74,0.06541
1056.95,0.05880
1051.17,0.04147
1045.38,0.03005
1039.59,0.03094
1033.81,0.03263
1028.02,0.02939
1022.24,0.02593
1016.45,0.03220
1010.66,0.06594
1004.88,0.10479
999.09,0.11981
993.304,0.11643
987.518,0.09866
981.731,0.08162
975.945,0.07094
970.159,0.07482
964.373,0.08831
958.586,0.08611
952.8,0.06767
947.014,0.06109
941.228,0.06207
935.441,0.05997
929.655,0.07007
923.869,0.08768
918.083,0.09615
912.297,0.09349
906.51,0.08658
900.724,0.09279
894.938,0.10200
889.152,0.10293
883.365,0.07699
877.579,0.04378
871.793,0.03539
866.007,0.07585
860.22,0.08581
854.434,0.07154
848.648,0.06964
842.862,0.07678
837.075,0.09605
831.289,0.10691
825.503,0.10728
819.717,0.10816
813.931,0.11001
808.144,0.11176
802.358,0.11576
796.572,0.08583
790.786,0.10304
784.999,0.13415
779.213,0.13010
773.427,0.11952
767.641,0.12527
761.854,0.12715
756.068,0.11987
750.282,0.10179
744.496,0.06398
738.709,0.02387
732.923,0.02108
727.137,0.03024
721.351,0.04311
715.565,0.08600
709.778,0.10784
703.992,0.11755
698.206,0.16102
692.42,0.18856
686.633,0.18683
680.847,0.17353
675.061,0.18976
669.275,0.20179
663.488,0.20944
657.702,0.21139
651.916,0.21716
646.13,0.22174
640.343,0.22088
634.557,0.19044
628.771,0.20347
622.985,0.23305
617.198,0.23772
611.412,0.24040
605.626,0.24251
599.84,0.24140