File: 01_Data/Triexta_Carpet_High_Pile/FTIR/IS/Triexta_Carpet_High_Pile_IS_T_221121_R4.dpt
7497.03,0.01739
7491.25,0.02787
7485.46,0.03902
7479.67,0.01952
7473.89,0.02747
7468.1,0.02821
7462.32,0.02116
7456.53,0.01983
7450.74,0.01637
7444.96,0.02832
7439.17,0.02901
7433.38,0.02914
7427.6,0.02216
7421.81,0.03305
7416.03,0.02727
7410.24,0.01977
7404.45,0.02754
7398.67,0.01736
7392.88,0.02857
7387.09,0.02688
7381.31,0.02277
7375.52,0.02044
7369.74,0.03347
7363.95,0.02327
7358.16,0.02098
7352.38,0.01895
7346.59,0.02679
7340.8,0.02739
7335.02,0.03221
7329.23,0.03062
7323.45,0.02455
7317.66,0.02468
7311.87,0.02571
7306.09,0.03267
7300.3,0.03579
7294.51,0.02586
7288.73,0.02835
7282.94,0.02883
7277.16,0.01954
7271.37,0.02063
7265.58,0.02973
7259.8,0.02788
7254.01,0.02427
7248.22,0.02736
7242.44,0.02810
7236.65,0.01805
7230.87,0.02285
7225.08,0.02581
7219.29,0.02448
7213.51,0.01684
7207.72,0.02310
7201.93,0.02614
7196.15,0.01615
7190.36,0.01973
7184.58,0.02450
7178.79,0.01837
7173,0.02699
7167.22,0.02185
7161.43,0.02637
7155.65,0.02094
7149.86,0.02602
7144.07,0.02613
7138.29,0.02012
7132.5,0.02662
7126.71,0.02294
7120.93,0.02678
7115.14,0.02262
7109.36,0.02929
7103.57,0.02452
7097.78,0.02869
7092,0.02533
7086.21,0.02473
7080.42,0.02216
7074.64,0.01729
7068.85,0.02460
7063.07,0.02160
7057.28,0.02722
7051.49,0.02378
7045.71,0.02333
7039.92,0.02605
7034.13,0.02628
7028.35,0.02389
7022.56,0.01848
7016.78,0.02240
7010.99,0.02338
7005.2,0.02106
6999.42,0.02044
6993.63,0.01923
6987.84,0.02477
6982.06,0.02623
6976.27,0.02309
6970.49,0.02659
6964.7,0.02444
6958.91,0.02498
6953.13,0.03175
6947.34,0.01873
6941.55,0.02124
6935.77,0.02398
6929.98,0.02760
6924.2,0.02304
6918.41,0.02525
6912.62,0.02573
6906.84,0.02018
6901.05,0.01780
6895.26,0.02033
6889.48,0.02390
6883.69,0.02426
6877.91,0.02107
6872.12,0.03145
6866.33,0.02504
6860.55,0.01918
6854.76,0.01902
6848.97,0.01833
6843.19,0.02916
6837.4,0.02282
6831.62,0.02722
6825.83,0.02324
6820.04,0.01460
6814.26,0.02001
6808.47,0.02217
6802.68,0.02058
6796.9,0.02179
6791.11,0.02083
6785.33,0.02654
6779.54,0.02719
6773.75,0.02602
6767.97,0.02402
6762.18,0.02298
6756.39,0.02224
6750.61,0.02270
6744.82,0.01839
6739.04,0.01778
6733.25,0.02435
6727.46,0.02674
6721.68,0.02382
6715.89,0.02455
6710.1,0.03074
6704.32,0.02340
6698.53,0.02102
6692.75,0.02252
6686.96,0.02417
6681.17,0.02614
6675.39,0.02033
6669.6,0.02297
6663.82,0.01737
6658.03,0.02091
6652.24,0.02471
6646.46,0.02565
6640.67,0.02015
6634.88,0.02103
6629.1,0.01876
6623.31,0.02073
6617.53,0.02125
6611.74,0.02147
6605.95,0.02458
6600.17,0.02318
6594.38,0.02038
6588.59,0.01854
6582.81,0.01889
6577.02,0.02483
6571.24,0.02410
6565.45,0.02102
6559.66,0.02137
6553.88,0.02050
6548.09,0.01953
6542.3,0.01807
6536.52,0.02554
6530.73,0.02527
6524.95,0.02423
6519.16,0.02334
6513.37,0.01992
6507.59,0.02266
6501.8,0.02016
6496.01,0.02321
6490.23,0.01896
6484.44,0.02140
6478.66,0.02182
6472.87,0.01732
6467.08,0.02253
6461.3,0.02133
6455.51,0.02037
6449.72,0.02672
6443.94,0.02463
6438.15,0.02292
6432.37,0.02332
6426.58,0.02380
6420.79,0.02381
6415.01,0.02216
6409.22,0.02239
6403.43,0.02329
6397.65,0.02322
6391.86,0.02288
6386.08,0.02084
6380.29,0.02183
6374.5,0.02204
6368.72,0.02255
6362.93,0.01771
6357.14,0.01825
6351.36,0.02163
6345.57,0.02540
6339.79,0.02607
6334,0.01883
6328.21,0.01689
6322.43,0.01768
6316.64,0.02467
6310.85,0.02415
6305.07,0.02490
6299.28,0.02238
6293.5,0.02029
6287.71,0.02314
6281.92,0.02337
6276.14,0.02217
6270.35,0.02337
6264.56,0.02273
6258.78,0.02087
6252.99,0.02330
6247.21,0.02495
6241.42,0.02223
6235.63,0.02563
6229.85,0.02257
6224.06,0.02041
6218.27,0.02010
6212.49,0.01949
6206.7,0.01729
6200.92,0.01856
6195.13,0.02176
6189.34,0.02047
6183.56,0.02128
6177.77,0.02487
6171.98,0.02515
6166.2,0.02132
6160.41,0.01766
6154.63,0.02200
6148.84,0.02251
6143.05,0.02325
6137.27,0.02112
6131.48,0.02551
6125.7,0.02109
6119.91,0.02318
6114.12,0.02347
6108.34,0.02078
6102.55,0.02162
6096.76,0.02141
6090.98,0.01694
6085.19,0.02231
6079.41,0.01866
6073.62,0.02175
6067.83,0.01992
6062.05,0.02029
6056.26,0.02201
6050.47,0.02154
6044.69,0.02251
6038.9,0.02172
6033.12,0.02073
6027.33,0.02199
6021.54,0.02083
6015.76,0.02301
6009.97,0.02190
6004.18,0.02306
5998.4,0.02075
5992.61,0.02075
5986.83,0.02315
5981.04,0.02076
5975.25,0.02469
5969.47,0.02025
5963.68,0.01716
5957.89,0.02420
5952.11,0.02307
5946.32,0.01905
5940.54,0.02151
5934.75,0.02007
5928.96,0.01954
5923.18,0.02145
5917.39,0.02435
5911.6,0.02260
5905.82,0.02230
5900.03,0.02083
5894.25,0.02243
5888.46,0.02204
5882.67,0.02034
5876.89,0.01935
5871.1,0.02148
5865.31,0.02345
5859.53,0.02355
5853.74,0.02230
5847.96,0.02324
5842.17,0.02218
5836.38,0.02269
5830.6,0.01964
5824.81,0.02280
5819.02,0.01975
5813.24,0.02114
5807.45,0.02478
5801.67,0.02541
5795.88,0.02240
5790.09,0.01957
5784.31,0.02033
5778.52,0.02113
5772.73,0.02182
5766.95,0.02290
5761.16,0.02219
5755.38,0.02212
5749.59,0.02122
5743.8,0.02293
5738.02,0.02178
5732.23,0.02255
5726.44,0.02189
5720.66,0.02125
5714.87,0.02068
5709.09,0.02444
5703.3,0.02084
5697.51,0.01946
5691.73,0.02033
5685.94,0.02246
5680.15,0.02136
5674.37,0.02204
5668.58,0.02127
5662.8,0.02054
5657.01,0.01852
5651.22,0.01959
5645.44,0.02264
5639.65,0.02146
5633.87,0.02341
5628.08,0.02148
5622.29,0.02224
5616.51,0.02164
5610.72,0.02127
5604.93,0.02186
5599.15,0.02346
5593.36,0.02174
5587.58,0.02109
5581.79,0.01868
5576,0.02262
5570.22,0.02159
5564.43,0.02085
5558.64,0.02137
5552.86,0.02088
5547.07,0.02325
5541.29,0.02053
5535.5,0.02130
5529.71,0.02098
5523.93,0.02118
5518.14,0.02081
5512.35,0.02070
5506.57,0.02155
5500.78,0.02182
5495,0.02042
5489.21,0.01977
5483.42,0.02135
5477.64,0.02219
5471.85,0.01935
5466.06,0.02195
5460.28,0.02176
5454.49,0.02295
5448.71,0.02192
5442.92,0.02133
5437.13,0.02195
5431.35,0.02049
5425.56,0.02122
5419.77,0.02135
5413.99,0.02274
5408.2,0.02310
5402.42,0.02195
5396.63,0.02138
5390.84,0.02076
5385.06,0.02038
5379.27,0.02094
5373.48,0.01996
5367.7,0.02114
5361.91,0.02058
5356.13,0.02307
5350.34,0.02148
5344.55,0.02071
5338.77,0.02075
5332.98,0.02211
5327.19,0.02053
5321.41,0.02124
5315.62,0.01989
5309.84,0.02167
5304.05,0.02135
5298.26,0.02111
5292.48,0.02153
5286.69,0.02086
5280.9,0.02183
5275.12,0.02291
5269.33,0.02178
5263.55,0.02286
5257.76,0.02325
5251.97,0.02110
5246.19,0.02144
5240.4,0.02248
5234.61,0.02072
5228.83,0.02110
5223.04,0.02251
5217.26,0.02224
5211.47,0.02258
5205.68,0.02352
5199.9,0.02294
5194.11,0.02165
5188.32,0.02083
5182.54,0.02159
5176.75,0.02149
5170.97,0.02121
5165.18,0.02180
5159.39,0.02229
5153.61,0.02130
5147.82,0.02200
5142.03,0.02180
5136.25,0.02201
5130.46,0.02269
5124.68,0.02186
5118.89,0.02285
5113.1,0.02065
5107.32,0.02143
5101.53,0.02077
5095.75,0.02120
5089.96,0.02196
5084.17,0.02228
5078.39,0.02300
5072.6,0.02127
5066.81,0.02273
5061.03,0.02168
5055.24,0.02038
5049.46,0.02064
5043.67,0.02227
5037.88,0.02116
5032.1,0.02102
5026.31,0.02123
5020.52,0.02187
5014.74,0.02136
5008.95,0.02141
5003.17,0.02068
4997.38,0.02138
4991.59,0.02221
4985.81,0.02180
4980.02,0.02148
4974.23,0.02222
4968.45,0.02254
4962.66,0.02237
4956.88,0.02142
4951.09,0.02235
4945.3,0.02068
4939.52,0.02098
4933.73,0.02134
4927.94,0.02173
4922.16,0.02138
4916.37,0.02205
4910.59,0.02147
4904.8,0.02037
4899.01,0.02279
4893.23,0.02209
4887.44,0.02110
4881.65,0.02232
4875.87,0.02153
4870.08,0.02163
4864.3,0.02263
4858.51,0.02134
4852.72,0.02296
4846.94,0.02270
4841.15,0.02317
4835.36,0.02174
4829.58,0.02133
4823.79,0.02207
4818.01,0.02247
4812.22,0.02239
4806.43,0.02162
4800.65,0.02212
4794.86,0.02133
4789.07,0.02209
4783.29,0.02156
4777.5,0.02193
4771.72,0.02191
4765.93,0.02240
4760.14,0.02221
4754.36,0.02126
4748.57,0.02250
4742.78,0.02225
4737,0.02194
4731.21,0.02208
4725.43,0.02221
4719.64,0.02294
4713.85,0.02300
4708.07,0.02218
4702.28,0.02098
4696.49,0.02188
4690.71,0.02162
4684.92,0.02261
4679.14,0.02211
4673.35,0.02185
4667.56,0.02197
4661.78,0.02175
4655.99,0.02214
4650.2,0.02152
4644.42,0.02153
4638.63,0.02143
4632.85,0.02168
4627.06,0.02231
4621.27,0.02191
4615.49,0.02227
4609.7,0.02176
4603.92,0.02166
4598.13,0.02152
4592.34,0.02266
4586.56,0.02275
4580.77,0.02195
4574.98,0.02168
4569.2,0.02149
4563.41,0.02222
4557.63,0.02139
4551.84,0.02160
4546.05,0.02141
4540.27,0.02193
4534.48,0.02133
4528.69,0.02254
4522.91,0.02242
4517.12,0.02197
4511.34,0.02098
4505.55,0.02207
4499.76,0.02156
4493.98,0.02187
4488.19,0.02236
4482.4,0.02199
4476.62,0.02207
4470.83,0.02078
4465.05,0.02305
4459.26,0.02134
4453.47,0.02180
4447.69,0.02205
4441.9,0.02120
4436.11,0.02257
4430.33,0.02274
4424.54,0.02242
4418.76,0.02209
4412.97,0.02119
4407.18,0.02205
4401.4,0.02199
4395.61,0.02245
4389.82,0.02156
4384.04,0.02078
4378.25,0.02286
4372.47,0.02299
4366.68,0.02145
4360.89,0.02276
4355.11,0.02226
4349.32,0.02244
4343.53,0.02222
4337.75,0.02226
4331.96,0.02178
4326.18,0.02163
4320.39,0.02182
4314.6,0.02273
4308.82,0.02182
4303.03,0.02257
4297.24,0.02217
4291.46,0.02167
4285.67,0.02222
4279.89,0.02243
4274.1,0.02260
4268.31,0.02199
4262.53,0.02170
4256.74,0.02196
4250.95,0.02193
4245.17,0.02233
4239.38,0.02236
4233.6,0.02193
4227.81,0.02224
4222.02,0.02129
4216.24,0.02220
4210.45,0.02206
4204.66,0.02184
4198.88,0.02227
4193.09,0.02252
4187.31,0.02234
4181.52,0.02184
4175.73,0.02203
4169.95,0.02205
4164.16,0.02202
4158.37,0.02206
4152.59,0.02166
4146.8,0.02272
4141.02,0.02268
4135.23,0.02237
4129.44,0.02239
4123.66,0.02232
4117.87,0.02244
4112.09,0.02250
4106.3,0.02291
4100.51,0.02217
4094.73,0.02265
4088.94,0.02220
4083.15,0.02252
4077.37,0.02208
4071.58,0.02228
4065.8,0.02200
4060.01,0.02191
4054.22,0.02250
4048.44,0.02202
4042.65,0.02254
4036.86,0.02207
4031.08,0.02279
4025.29,0.02224
4019.51,0.02172
4013.72,0.02191
4007.93,0.02201
4002.15,0.02266
3996.36,0.02227
3990.57,0.02202
3984.79,0.02253
3979,0.02215
3973.22,0.02250
3967.43,0.02258
3961.64,0.02260
3955.86,0.02162
3950.07,0.02239
3944.28,0.02240
3938.5,0.02281
3932.71,0.02285
3926.93,0.02255
3921.14,0.02231
3915.35,0.02223
3909.57,0.02230
3903.78,0.02255
3897.99,0.02186
3892.21,0.02181
3886.42,0.02242
3880.64,0.02259
3874.85,0.02255
3869.06,0.02274
3863.28,0.02242
3857.49,0.02216
3851.7,0.02166
3845.92,0.02260
3840.13,0.02276
3834.35,0.02254
3828.56,0.02226
3822.77,0.02284
3816.99,0.02251
3811.2,0.02217
3805.41,0.02232
3799.63,0.02227
3793.84,0.02208
3788.06,0.02308
3782.27,0.02259
3776.48,0.02198
3770.7,0.02244
3764.91,0.02261
3759.12,0.02264
3753.34,0.02271
3747.55,0.02154
3741.77,0.02256
3735.98,0.02270
3730.19,0.02228
3724.41,0.02251
3718.62,0.02233
3712.83,0.02237
3707.05,0.02214
3701.26,0.02266
3695.48,0.02199
3689.69,0.02170
3683.9,0.02243
3678.12,0.02242
3672.33,0.02172
3666.54,0.02241
3660.76,0.02165
3654.97,0.02180
3649.19,0.02252
3643.4,0.02227
3637.61,0.02237
3631.83,0.02231
3626.04,0.02163
3620.25,0.02137
3614.47,0.02206
3608.68,0.02142
3602.9,0.02185
3597.11,0.02239
3591.32,0.02139
3585.54,0.02148
3579.75,0.02146
3573.97,0.02159
3568.18,0.02184
3562.39,0.02121
3556.61,0.02146
3550.82,0.02179
3545.03,0.02148
3539.25,0.02121
3533.46,0.02078
3527.68,0.02051
3521.89,0.02092
3516.1,0.02023
3510.32,0.02039
3504.53,0.02094
3498.74,0.02093
3492.96,0.02086
3487.17,0.02129
3481.39,0.02029
3475.6,0.02043
3469.81,0.02055
3464.03,0.02105
3458.24,0.02113
3452.45,0.02028
3446.67,0.02112
3440.88,0.02057
3435.1,0.02102
3429.31,0.02031
3423.52,0.02086
3417.74,0.02034
3411.95,0.02007
3406.16,0.02092
3400.38,0.02051
3394.59,0.02049
3388.81,0.02081
3383.02,0.02022
3377.23,0.02056
3371.45,0.02027
3365.66,0.01980
3359.87,0.02021
3354.09,0.02027
3348.3,0.02007
3342.52,0.01996
3336.73,0.02015
3330.94,0.01996
3325.16,0.02024
3319.37,0.02059
3313.58,0.02081
3307.8,0.02057
3302.01,0.02034
3296.23,0.02008
3290.44,0.02034
3284.65,0.02025
3278.87,0.02033
3273.08,0.02036
3267.29,0.02128
3261.51,0.02015
3255.72,0.02073
3249.94,0.01986
3244.15,0.02127
3238.36,0.02001
3232.58,0.02069
3226.79,0.02051
3221,0.02069
3215.22,0.02027
3209.43,0.02049
3203.65,0.02067
3197.86,0.02133
3192.07,0.02104
3186.29,0.02044
3180.5,0.02004
3174.71,0.02019
3168.93,0.02042
3163.14,0.02117
3157.36,0.02083
3151.57,0.02056
3145.78,0.02104
3140,0.02084
3134.21,0.02085
3128.42,0.02054
3122.64,0.02080
3116.85,0.02076
3111.07,0.02105
3105.28,0.02060
3099.49,0.02083
3093.71,0.02070
3087.92,0.02099
3082.14,0.02060
3076.35,0.01999
3070.56,0.02072
3064.78,0.02103
3058.99,0.02066
3053.2,0.02045
3047.42,0.02087
3041.63,0.02052
3035.85,0.02044
3030.06,0.02093
3024.27,0.02108
3018.49,0.02022
3012.7,0.02053
3006.91,0.02056
3001.13,0.02082
2995.34,0.01978
2989.56,0.02006
2983.77,0.01993
2977.98,0.02011
2972.2,0.01987
2966.41,0.01999
2960.62,0.01984
2954.84,0.01906
2949.05,0.01951
2943.27,0.01982
2937.48,0.01986
2931.69,0.01918
2925.91,0.01948
2920.12,0.01951
2914.33,0.02023
2908.55,0.02081
2902.76,0.02054
2896.98,0.01984
2891.19,0.02019
2885.4,0.02014
2879.62,0.02021
2873.83,0.02019
2868.04,0.02029
2862.26,0.02030
2856.47,0.02064
2850.69,0.02034
2844.9,0.02124
2839.11,0.02081
2833.33,0.02135
2827.54,0.02112
2821.75,0.02115
2815.97,0.02089
2810.18,0.02126
2804.4,0.02076
2798.61,0.02122
2792.82,0.02098
2787.04,0.02106
2781.25,0.02065
2775.46,0.02115
2769.68,0.02086
2763.89,0.02139
2758.11,0.02126
2752.32,0.02115
2746.53,0.02152
2740.75,0.02123
2734.96,0.02098
2729.17,0.02096
2723.39,0.02166
2717.6,0.02132
2711.82,0.02094
2706.03,0.02102
2700.24,0.02141
2694.46,0.02150
2688.67,0.02129
2682.88,0.02149
2677.1,0.02110
2671.31,0.02100
2665.53,0.02133
2659.74,0.02145
2653.95,0.02100
2648.17,0.02111
2642.38,0.02123
2636.59,0.02121
2630.81,0.02104
2625.02,0.02116
2619.24,0.02093
2613.45,0.02123
2607.66,0.02150
2601.88,0.02137
2596.09,0.02090
2590.3,0.02170
2584.52,0.02116
2578.73,0.02147
2572.95,0.02117
2567.16,0.02125
2561.37,0.02132
2555.59,0.02132
2549.8,0.02108
2544.02,0.02128
2538.23,0.02142
2532.44,0.02118
2526.66,0.02149
2520.87,0.02094
2515.08,0.02135
2509.3,0.02148
2503.51,0.02165
2497.73,0.02163
2491.94,0.02128
2486.15,0.02148
2480.37,0.02122
2474.58,0.02137
2468.79,0.02152
2463.01,0.02103
2457.22,0.02086
2451.44,0.02111
2445.65,0.02142
2439.86,0.02167
2434.08,0.02104
2428.29,0.02123
2422.5,0.02123
2416.72,0.02119
2410.93,0.02096
2405.15,0.02117
2399.36,0.02166
2393.57,0.02128
2387.79,0.02149
2382,0.02144
2376.21,0.02173
2370.43,0.02168
2364.64,0.02186
2358.86,0.02131
2353.07,0.02115
2347.28,0.02170
2341.5,0.02114
2335.71,0.02121
2329.92,0.02147
2324.14,0.02134
2318.35,0.02146
2312.57,0.02101
2306.78,0.02088
2300.99,0.02128
2295.21,0.02146
2289.42,0.02115
2283.63,0.02137
2277.85,0.02155
2272.06,0.02128
2266.28,0.02112
2260.49,0.02128
2254.7,0.02104
2248.92,0.02101
2243.13,0.02079
2237.34,0.02100
2231.56,0.02144
2225.77,0.02129
2219.99,0.02128
2214.2,0.02127
2208.41,0.02113
2202.63,0.02120
2196.84,0.02104
2191.05,0.02111
2185.27,0.02134
2179.48,0.02144
2173.7,0.02116
2167.91,0.02095
2162.12,0.02091
2156.34,0.02109
2150.55,0.02112
2144.76,0.02083
2138.98,0.02103
2133.19,0.02100
2127.41,0.02081
2121.62,0.02092
2115.83,0.02103
2110.05,0.02131
2104.26,0.02101
2098.47,0.02093
2092.69,0.02091
2086.9,0.02121
2081.12,0.02088
2075.33,0.02102
2069.54,0.02105
2063.76,0.02079
2057.97,0.02073
2052.19,0.02088
2046.4,0.02127
2040.61,0.02104
2034.83,0.02116
2029.04,0.02105
2023.25,0.02107
2017.47,0.02105
2011.68,0.02091
2005.9,0.02098
2000.11,0.02115
1994.32,0.02129
1988.54,0.02097
1982.75,0.02094
1976.96,0.02077
1971.18,0.02078
1965.39,0.02136
1959.61,0.02088
1953.82,0.02110
1948.03,0.02103
1942.25,0.02080
1936.46,0.02087
1930.67,0.02101
1924.89,0.02087
1919.1,0.02077
1913.32,0.02074
1907.53,0.02081
1901.74,0.02089
1895.96,0.02084
1890.17,0.02063
1884.38,0.02053
1878.6,0.02054
1872.81,0.02063
1867.03,0.02069
1861.24,0.02063
1855.45,0.02045
1849.67,0.02065
1843.88,0.02063
1838.09,0.02050
1832.31,0.02019
1826.52,0.02037
1820.74,0.02020
1814.95,0.02009
1809.16,0.01981
1803.38,0.01999
1797.59,0.01991
1791.8,0.01997
1786.02,0.01928
1780.23,0.01921
1774.45,0.01910
1768.66,0.01843
1762.87,0.01832
1757.09,0.01772
1751.3,0.01799
1745.51,0.01799
1739.73,0.01903
1733.94,0.01978
1728.16,0.01997
1722.37,0.02087
1716.58,0.02126
1710.8,0.02056
1705.01,0.02003
1699.22,0.01974
1693.44,0.01929
1687.65,0.01935
1681.87,0.01939
1676.08,0.01885
1670.29,0.01869
1664.51,0.01832
1658.72,0.01840
1652.93,0.01865
1647.15,0.01858
1641.36,0.01870
1635.58,0.01884
1629.79,0.01850
1624,0.01911
1618.22,0.01942
1612.43,0.01924
1606.64,0.01902
1600.86,0.01918
1595.07,0.01878
1589.29,0.01856
1583.5,0.01823
1577.71,0.01815
1571.93,0.01822
1566.14,0.01825
1560.35,0.01832
1554.57,0.01811
1548.78,0.01802
1543,0.01860
1537.21,0.01872
1531.42,0.01889
1525.64,0.01876
1519.85,0.01854
1514.07,0.01838
1508.28,0.01886
1502.49,0.01843
1496.71,0.01870
1490.92,0.01869
1485.13,0.01873
1479.35,0.01835
1473.56,0.01867
1467.78,0.01848
1461.99,0.01874
1456.2,0.01880
1450.42,0.01893
1444.63,0.01907
1438.84,0.01899
1433.06,0.01936
1427.27,0.01908
1421.49,0.01865
1415.7,0.01882
1409.91,0.01882
1404.13,0.01823
1398.34,0.01818
1392.55,0.01816
1386.77,0.01823
1380.98,0.01856
1375.2,0.01861
1369.41,0.01812
1363.62,0.01826
1357.84,0.01848
1352.05,0.01784
1346.26,0.01797
1340.48,0.01794
1334.69,0.01795
1328.91,0.01766
1323.12,0.01767
1317.33,0.01741
1311.55,0.01703
1305.76,0.01751
1299.97,0.01763
1294.19,0.01812
1288.4,0.01875
1282.62,0.01867
1276.83,0.01947
1271.04,0.01951
1265.26,0.02016
1259.47,0.01988
1253.68,0.02002
1247.9,0.02020
1242.11,0.02022
1236.33,0.01985
1230.54,0.01969
1224.75,0.01947
1218.97,0.01912
1213.18,0.01917
1207.39,0.01926
1201.61,0.01857
1195.82,0.01920
1190.04,0.01946
1184.25,0.01811
1178.46,0.01815
1172.68,0.01808
1166.89,0.01733
1161.1,0.01807
1155.32,0.01771
1149.53,0.01750
1143.75,0.01749
1137.96,0.01802
1132.17,0.01819
1126.39,0.01802
1120.6,0.01848
1114.81,0.01861
1109.03,0.01863
1103.24,0.01910
1097.46,0.01847
1091.67,0.01800
1085.88,0.01783
1080.1,0.01915
1074.31,0.01910
1068.52,0.01986
1062.74,0.02017
1056.95,0.01999
1051.17,0.01943
1045.38,0.01995
1039.59,0.01942
1033.81,0.01919
1028.02,0.01951
1022.24,0.01879
1016.45,0.01909
1010.66,0.01999
1004.88,0.02133
999.09,0.02139
993.304,0.02140
987.518,0.02057
981.731,0.02018
975.945,0.02052
970.159,0.02021
964.373,0.02132
958.586,0.02043
952.8,0.02034
947.014,0.01972
941.228,0.01985
935.441,0.01964
929.655,0.01979
923.869,0.01956
918.083,0.01965
912.297,0.01883
906.51,0.01846
900.724,0.01923
894.938,0.01921
889.152,0.01851
883.365,0.01910
877.579,0.01949
871.793,0.01975
866.007,0.01985
860.22,0.01881
854.434,0.01884
848.648,0.01884
842.862,0.01929
837.075,0.01982
831.289,0.01950
825.503,0.01930
819.717,0.01962
813.931,0.01833
808.144,0.01893
802.358,0.01869
796.572,0.01894
790.786,0.01886
784.999,0.01905
779.213,0.01774
773.427,0.01850
767.641,0.01895
761.854,0.01863
756.068,0.01822
750.282,0.01737
744.496,0.01843
738.709,0.01886
732.923,0.01840
727.137,0.01849
721.351,0.01849
715.565,0.01761
709.778,0.01775
703.992,0.01806
698.206,0.01868
692.42,0.01887
686.633,0.01835
680.847,0.01815
675.061,0.01806
669.275,0.01757
663.488,0.01818
657.702,0.01803
651.916,0.01779
646.13,0.01720
640.343,0.01534
634.557,0.01624
628.771,0.01681
622.985,0.01722
617.198,0.01536
611.412,0.01539
605.626,0.01539
599.84,0.01605