File: 01_Data/Triexta_Carpet_High_Pile/FTIR/IS/Triexta_Carpet_High_Pile_IS_T_221121_R5.dpt
7497.03,0.01886
7491.25,0.02648
7485.46,0.01585
7479.67,0.02753
7473.89,0.02154
7468.1,0.02435
7462.32,0.02813
7456.53,0.02811
7450.74,0.01168
7444.96,0.02571
7439.17,0.01952
7433.38,0.02475
7427.6,0.03326
7421.81,0.01490
7416.03,0.03227
7410.24,0.02271
7404.45,0.03111
7398.67,0.03268
7392.88,0.02322
7387.09,0.01380
7381.31,0.02713
7375.52,0.02797
7369.74,0.02380
7363.95,0.02005
7358.16,0.02514
7352.38,0.01739
7346.59,0.02690
7340.8,0.02595
7335.02,0.02701
7329.23,0.02028
7323.45,0.02068
7317.66,0.02868
7311.87,0.02668
7306.09,0.01929
7300.3,0.02465
7294.51,0.02099
7288.73,0.02886
7282.94,0.02397
7277.16,0.02248
7271.37,0.02302
7265.58,0.02172
7259.8,0.02365
7254.01,0.02115
7248.22,0.02659
7242.44,0.02704
7236.65,0.03088
7230.87,0.02531
7225.08,0.03205
7219.29,0.02455
7213.51,0.01704
7207.72,0.03000
7201.93,0.01796
7196.15,0.02748
7190.36,0.01629
7184.58,0.02381
7178.79,0.01941
7173,0.01693
7167.22,0.01800
7161.43,0.02893
7155.65,0.02608
7149.86,0.02615
7144.07,0.01485
7138.29,0.03338
7132.5,0.02358
7126.71,0.02417
7120.93,0.02928
7115.14,0.02449
7109.36,0.01970
7103.57,0.02518
7097.78,0.02295
7092,0.02352
7086.21,0.02108
7080.42,0.02792
7074.64,0.02235
7068.85,0.02835
7063.07,0.02616
7057.28,0.02351
7051.49,0.02532
7045.71,0.02571
7039.92,0.02101
7034.13,0.02954
7028.35,0.02172
7022.56,0.02955
7016.78,0.01955
7010.99,0.02792
7005.2,0.02506
6999.42,0.02170
6993.63,0.01822
6987.84,0.02506
6982.06,0.02227
6976.27,0.02257
6970.49,0.02348
6964.7,0.02476
6958.91,0.02167
6953.13,0.02213
6947.34,0.02377
6941.55,0.02356
6935.77,0.02503
6929.98,0.02036
6924.2,0.01553
6918.41,0.02270
6912.62,0.02334
6906.84,0.02455
6901.05,0.02518
6895.26,0.02132
6889.48,0.02282
6883.69,0.02056
6877.91,0.02185
6872.12,0.02188
6866.33,0.02193
6860.55,0.02757
6854.76,0.02386
6848.97,0.01937
6843.19,0.02623
6837.4,0.02082
6831.62,0.02385
6825.83,0.02812
6820.04,0.02794
6814.26,0.02173
6808.47,0.02169
6802.68,0.02548
6796.9,0.01875
6791.11,0.02384
6785.33,0.02291
6779.54,0.02534
6773.75,0.02403
6767.97,0.01577
6762.18,0.01670
6756.39,0.02359
6750.61,0.01924
6744.82,0.02254
6739.04,0.01937
6733.25,0.02578
6727.46,0.01997
6721.68,0.02399
6715.89,0.02798
6710.1,0.02200
6704.32,0.02034
6698.53,0.02608
6692.75,0.01961
6686.96,0.02131
6681.17,0.02109
6675.39,0.02543
6669.6,0.02383
6663.82,0.02391
6658.03,0.02434
6652.24,0.02277
6646.46,0.01729
6640.67,0.02202
6634.88,0.02182
6629.1,0.02472
6623.31,0.01961
6617.53,0.02113
6611.74,0.02344
6605.95,0.02114
6600.17,0.02130
6594.38,0.02194
6588.59,0.02187
6582.81,0.01945
6577.02,0.02021
6571.24,0.02018
6565.45,0.02084
6559.66,0.02230
6553.88,0.02209
6548.09,0.02254
6542.3,0.02004
6536.52,0.02227
6530.73,0.02329
6524.95,0.02130
6519.16,0.02210
6513.37,0.02221
6507.59,0.02278
6501.8,0.02329
6496.01,0.02301
6490.23,0.02083
6484.44,0.02483
6478.66,0.02456
6472.87,0.02299
6467.08,0.02414
6461.3,0.01822
6455.51,0.02363
6449.72,0.02263
6443.94,0.02298
6438.15,0.02398
6432.37,0.02206
6426.58,0.02355
6420.79,0.02370
6415.01,0.02409
6409.22,0.02530
6403.43,0.01690
6397.65,0.01897
6391.86,0.02222
6386.08,0.02140
6380.29,0.01625
6374.5,0.01930
6368.72,0.02308
6362.93,0.02205
6357.14,0.02061
6351.36,0.02552
6345.57,0.02201
6339.79,0.01938
6334,0.02216
6328.21,0.01908
6322.43,0.02182
6316.64,0.02020
6310.85,0.02418
6305.07,0.01972
6299.28,0.02370
6293.5,0.02164
6287.71,0.01970
6281.92,0.01759
6276.14,0.02163
6270.35,0.02371
6264.56,0.02305
6258.78,0.02365
6252.99,0.02445
6247.21,0.01967
6241.42,0.02278
6235.63,0.02011
6229.85,0.02216
6224.06,0.02159
6218.27,0.02269
6212.49,0.02030
6206.7,0.02133
6200.92,0.02443
6195.13,0.01976
6189.34,0.02038
6183.56,0.02476
6177.77,0.01934
6171.98,0.02067
6166.2,0.02214
6160.41,0.01942
6154.63,0.01938
6148.84,0.01972
6143.05,0.02247
6137.27,0.01959
6131.48,0.01809
6125.7,0.01844
6119.91,0.01799
6114.12,0.02232
6108.34,0.02050
6102.55,0.01733
6096.76,0.02253
6090.98,0.02518
6085.19,0.02190
6079.41,0.02177
6073.62,0.02282
6067.83,0.02359
6062.05,0.02330
6056.26,0.02238
6050.47,0.02714
6044.69,0.02043
6038.9,0.02438
6033.12,0.01900
6027.33,0.02003
6021.54,0.02120
6015.76,0.02030
6009.97,0.02093
6004.18,0.02097
5998.4,0.02033
5992.61,0.02359
5986.83,0.02403
5981.04,0.02054
5975.25,0.01933
5969.47,0.01971
5963.68,0.02097
5957.89,0.01992
5952.11,0.01951
5946.32,0.02089
5940.54,0.02436
5934.75,0.02383
5928.96,0.02219
5923.18,0.02033
5917.39,0.02403
5911.6,0.02378
5905.82,0.02332
5900.03,0.02205
5894.25,0.02196
5888.46,0.02086
5882.67,0.02071
5876.89,0.02037
5871.1,0.02075
5865.31,0.02327
5859.53,0.02070
5853.74,0.02155
5847.96,0.02343
5842.17,0.02220
5836.38,0.02110
5830.6,0.02420
5824.81,0.01813
5819.02,0.02237
5813.24,0.02152
5807.45,0.02257
5801.67,0.02124
5795.88,0.02051
5790.09,0.02144
5784.31,0.02036
5778.52,0.02050
5772.73,0.02372
5766.95,0.02107
5761.16,0.02210
5755.38,0.02205
5749.59,0.02090
5743.8,0.01965
5738.02,0.02097
5732.23,0.02331
5726.44,0.02228
5720.66,0.02246
5714.87,0.02282
5709.09,0.02120
5703.3,0.02460
5697.51,0.02018
5691.73,0.02112
5685.94,0.02097
5680.15,0.02226
5674.37,0.02179
5668.58,0.01899
5662.8,0.01997
5657.01,0.02298
5651.22,0.02284
5645.44,0.02286
5639.65,0.02327
5633.87,0.02099
5628.08,0.02186
5622.29,0.02072
5616.51,0.02322
5610.72,0.01989
5604.93,0.02186
5599.15,0.02307
5593.36,0.02313
5587.58,0.02198
5581.79,0.02218
5576,0.02268
5570.22,0.02095
5564.43,0.02308
5558.64,0.02130
5552.86,0.02064
5547.07,0.02410
5541.29,0.02321
5535.5,0.02245
5529.71,0.02099
5523.93,0.02189
5518.14,0.02258
5512.35,0.02165
5506.57,0.02020
5500.78,0.02002
5495,0.02165
5489.21,0.02107
5483.42,0.02097
5477.64,0.02124
5471.85,0.02126
5466.06,0.02079
5460.28,0.02074
5454.49,0.02280
5448.71,0.02093
5442.92,0.02094
5437.13,0.02140
5431.35,0.02072
5425.56,0.02237
5419.77,0.02288
5413.99,0.02196
5408.2,0.02185
5402.42,0.02187
5396.63,0.01937
5390.84,0.02317
5385.06,0.02177
5379.27,0.02417
5373.48,0.02108
5367.7,0.02137
5361.91,0.02179
5356.13,0.02070
5350.34,0.02197
5344.55,0.02136
5338.77,0.01929
5332.98,0.01981
5327.19,0.02065
5321.41,0.02100
5315.62,0.02195
5309.84,0.02239
5304.05,0.02013
5298.26,0.02071
5292.48,0.02140
5286.69,0.02107
5280.9,0.02145
5275.12,0.02213
5269.33,0.02331
5263.55,0.02236
5257.76,0.02163
5251.97,0.02232
5246.19,0.02202
5240.4,0.02145
5234.61,0.02253
5228.83,0.02250
5223.04,0.02223
5217.26,0.02163
5211.47,0.02239
5205.68,0.02164
5199.9,0.02145
5194.11,0.02158
5188.32,0.02117
5182.54,0.02221
5176.75,0.02082
5170.97,0.02190
5165.18,0.02153
5159.39,0.02295
5153.61,0.02123
5147.82,0.02238
5142.03,0.02186
5136.25,0.02248
5130.46,0.02124
5124.68,0.02204
5118.89,0.02097
5113.1,0.02234
5107.32,0.02148
5101.53,0.02032
5095.75,0.02099
5089.96,0.02127
5084.17,0.02144
5078.39,0.02131
5072.6,0.02160
5066.81,0.02152
5061.03,0.02368
5055.24,0.02245
5049.46,0.02147
5043.67,0.02256
5037.88,0.02219
5032.1,0.02144
5026.31,0.02254
5020.52,0.02106
5014.74,0.02138
5008.95,0.02188
5003.17,0.02141
4997.38,0.02184
4991.59,0.02260
4985.81,0.02030
4980.02,0.02096
4974.23,0.02169
4968.45,0.02258
4962.66,0.02127
4956.88,0.02234
4951.09,0.02242
4945.3,0.02129
4939.52,0.02135
4933.73,0.02148
4927.94,0.02107
4922.16,0.02203
4916.37,0.02180
4910.59,0.02116
4904.8,0.02192
4899.01,0.02143
4893.23,0.02173
4887.44,0.02174
4881.65,0.02187
4875.87,0.02083
4870.08,0.02162
4864.3,0.02157
4858.51,0.02156
4852.72,0.02206
4846.94,0.02259
4841.15,0.02237
4835.36,0.02103
4829.58,0.02068
4823.79,0.02196
4818.01,0.02131
4812.22,0.02165
4806.43,0.02356
4800.65,0.02143
4794.86,0.02175
4789.07,0.02195
4783.29,0.02287
4777.5,0.02257
4771.72,0.02153
4765.93,0.02192
4760.14,0.02287
4754.36,0.02169
4748.57,0.02205
4742.78,0.02135
4737,0.02241
4731.21,0.02191
4725.43,0.02188
4719.64,0.02128
4713.85,0.02163
4708.07,0.02054
4702.28,0.02222
4696.49,0.02180
4690.71,0.02157
4684.92,0.02193
4679.14,0.02183
4673.35,0.02170
4667.56,0.02112
4661.78,0.02154
4655.99,0.02223
4650.2,0.02268
4644.42,0.02201
4638.63,0.02173
4632.85,0.02128
4627.06,0.02176
4621.27,0.02230
4615.49,0.02188
4609.7,0.02177
4603.92,0.02229
4598.13,0.02235
4592.34,0.02234
4586.56,0.02194
4580.77,0.02163
4574.98,0.02243
4569.2,0.02177
4563.41,0.02175
4557.63,0.02239
4551.84,0.02185
4546.05,0.02153
4540.27,0.02202
4534.48,0.02226
4528.69,0.02190
4522.91,0.02175
4517.12,0.02159
4511.34,0.02265
4505.55,0.02163
4499.76,0.02167
4493.98,0.02216
4488.19,0.02209
4482.4,0.02130
4476.62,0.02264
4470.83,0.02212
4465.05,0.02181
4459.26,0.02181
4453.47,0.02160
4447.69,0.02195
4441.9,0.02143
4436.11,0.02166
4430.33,0.02234
4424.54,0.02245
4418.76,0.02119
4412.97,0.02164
4407.18,0.02187
4401.4,0.02250
4395.61,0.02256
4389.82,0.02116
4384.04,0.02299
4378.25,0.02240
4372.47,0.02175
4366.68,0.02207
4360.89,0.02217
4355.11,0.02201
4349.32,0.02214
4343.53,0.02186
4337.75,0.02277
4331.96,0.02261
4326.18,0.02242
4320.39,0.02153
4314.6,0.02173
4308.82,0.02230
4303.03,0.02286
4297.24,0.02242
4291.46,0.02205
4285.67,0.02226
4279.89,0.02168
4274.1,0.02252
4268.31,0.02256
4262.53,0.02236
4256.74,0.02201
4250.95,0.02152
4245.17,0.02167
4239.38,0.02218
4233.6,0.02226
4227.81,0.02246
4222.02,0.02190
4216.24,0.02196
4210.45,0.02215
4204.66,0.02176
4198.88,0.02241
4193.09,0.02228
4187.31,0.02262
4181.52,0.02238
4175.73,0.02244
4169.95,0.02281
4164.16,0.02217
4158.37,0.02246
4152.59,0.02188
4146.8,0.02175
4141.02,0.02218
4135.23,0.02322
4129.44,0.02180
4123.66,0.02186
4117.87,0.02278
4112.09,0.02188
4106.3,0.02191
4100.51,0.02152
4094.73,0.02274
4088.94,0.02235
4083.15,0.02194
4077.37,0.02244
4071.58,0.02198
4065.8,0.02281
4060.01,0.02223
4054.22,0.02163
4048.44,0.02191
4042.65,0.02278
4036.86,0.02189
4031.08,0.02238
4025.29,0.02246
4019.51,0.02239
4013.72,0.02158
4007.93,0.02170
4002.15,0.02211
3996.36,0.02192
3990.57,0.02201
3984.79,0.02171
3979,0.02226
3973.22,0.02240
3967.43,0.02258
3961.64,0.02204
3955.86,0.02215
3950.07,0.02185
3944.28,0.02224
3938.5,0.02261
3932.71,0.02223
3926.93,0.02244
3921.14,0.02235
3915.35,0.02284
3909.57,0.02293
3903.78,0.02247
3897.99,0.02213
3892.21,0.02193
3886.42,0.02238
3880.64,0.02279
3874.85,0.02243
3869.06,0.02263
3863.28,0.02317
3857.49,0.02258
3851.7,0.02271
3845.92,0.02246
3840.13,0.02266
3834.35,0.02291
3828.56,0.02236
3822.77,0.02216
3816.99,0.02287
3811.2,0.02274
3805.41,0.02267
3799.63,0.02210
3793.84,0.02240
3788.06,0.02228
3782.27,0.02240
3776.48,0.02261
3770.7,0.02261
3764.91,0.02248
3759.12,0.02259
3753.34,0.02283
3747.55,0.02239
3741.77,0.02262
3735.98,0.02279
3730.19,0.02193
3724.41,0.02274
3718.62,0.02224
3712.83,0.02182
3707.05,0.02247
3701.26,0.02302
3695.48,0.02183
3689.69,0.02277
3683.9,0.02178
3678.12,0.02285
3672.33,0.02266
3666.54,0.02255
3660.76,0.02184
3654.97,0.02243
3649.19,0.02165
3643.4,0.02151
3637.61,0.02116
3631.83,0.02248
3626.04,0.02259
3620.25,0.02148
3614.47,0.02176
3608.68,0.02200
3602.9,0.02104
3597.11,0.02096
3591.32,0.02195
3585.54,0.02164
3579.75,0.02111
3573.97,0.02141
3568.18,0.02117
3562.39,0.02084
3556.61,0.02128
3550.82,0.02101
3545.03,0.02110
3539.25,0.02122
3533.46,0.02089
3527.68,0.02070
3521.89,0.02096
3516.1,0.02024
3510.32,0.02053
3504.53,0.02034
3498.74,0.02069
3492.96,0.02091
3487.17,0.02096
3481.39,0.02105
3475.6,0.02055
3469.81,0.02062
3464.03,0.02070
3458.24,0.02073
3452.45,0.02069
3446.67,0.02095
3440.88,0.02043
3435.1,0.02007
3429.31,0.02049
3423.52,0.02016
3417.74,0.02028
3411.95,0.02097
3406.16,0.02076
3400.38,0.02015
3394.59,0.02000
3388.81,0.02006
3383.02,0.01958
3377.23,0.02005
3371.45,0.01989
3365.66,0.02035
3359.87,0.02053
3354.09,0.02098
3348.3,0.01969
3342.52,0.02017
3336.73,0.01976
3330.94,0.01989
3325.16,0.02010
3319.37,0.01980
3313.58,0.02059
3307.8,0.02078
3302.01,0.01994
3296.23,0.02023
3290.44,0.02003
3284.65,0.02011
3278.87,0.02032
3273.08,0.02043
3267.29,0.02116
3261.51,0.02103
3255.72,0.02034
3249.94,0.02016
3244.15,0.02012
3238.36,0.02080
3232.58,0.02075
3226.79,0.02078
3221,0.02085
3215.22,0.02074
3209.43,0.02067
3203.65,0.02084
3197.86,0.02107
3192.07,0.02085
3186.29,0.02055
3180.5,0.02086
3174.71,0.02041
3168.93,0.02136
3163.14,0.02064
3157.36,0.02026
3151.57,0.02128
3145.78,0.02071
3140,0.02087
3134.21,0.02138
3128.42,0.02132
3122.64,0.02039
3116.85,0.02094
3111.07,0.02079
3105.28,0.02056
3099.49,0.02100
3093.71,0.02093
3087.92,0.02141
3082.14,0.02058
3076.35,0.02011
3070.56,0.02026
3064.78,0.02045
3058.99,0.02059
3053.2,0.02023
3047.42,0.02058
3041.63,0.02057
3035.85,0.02077
3030.06,0.02085
3024.27,0.02025
3018.49,0.02101
3012.7,0.02082
3006.91,0.02055
3001.13,0.02040
2995.34,0.02064
2989.56,0.02025
2983.77,0.02026
2977.98,0.02001
2972.2,0.01999
2966.41,0.01980
2960.62,0.01924
2954.84,0.01952
2949.05,0.01934
2943.27,0.01982
2937.48,0.01991
2931.69,0.01995
2925.91,0.01964
2920.12,0.02020
2914.33,0.02038
2908.55,0.02010
2902.76,0.02050
2896.98,0.02052
2891.19,0.02067
2885.4,0.02040
2879.62,0.02058
2873.83,0.02014
2868.04,0.02053
2862.26,0.02068
2856.47,0.02076
2850.69,0.02102
2844.9,0.02106
2839.11,0.02146
2833.33,0.02114
2827.54,0.02133
2821.75,0.02138
2815.97,0.02126
2810.18,0.02080
2804.4,0.02130
2798.61,0.02128
2792.82,0.02096
2787.04,0.02126
2781.25,0.02115
2775.46,0.02115
2769.68,0.02170
2763.89,0.02115
2758.11,0.02086
2752.32,0.02094
2746.53,0.02133
2740.75,0.02079
2734.96,0.02136
2729.17,0.02121
2723.39,0.02132
2717.6,0.02134
2711.82,0.02148
2706.03,0.02112
2700.24,0.02120
2694.46,0.02110
2688.67,0.02076
2682.88,0.02143
2677.1,0.02126
2671.31,0.02154
2665.53,0.02104
2659.74,0.02119
2653.95,0.02132
2648.17,0.02138
2642.38,0.02153
2636.59,0.02123
2630.81,0.02104
2625.02,0.02174
2619.24,0.02132
2613.45,0.02134
2607.66,0.02151
2601.88,0.02160
2596.09,0.02125
2590.3,0.02110
2584.52,0.02156
2578.73,0.02131
2572.95,0.02103
2567.16,0.02113
2561.37,0.02125
2555.59,0.02100
2549.8,0.02105
2544.02,0.02107
2538.23,0.02133
2532.44,0.02106
2526.66,0.02121
2520.87,0.02094
2515.08,0.02094
2509.3,0.02110
2503.51,0.02111
2497.73,0.02116
2491.94,0.02132
2486.15,0.02102
2480.37,0.02126
2474.58,0.02112
2468.79,0.02105
2463.01,0.02116
2457.22,0.02128
2451.44,0.02106
2445.65,0.02111
2439.86,0.02135
2434.08,0.02170
2428.29,0.02144
2422.5,0.02141
2416.72,0.02119
2410.93,0.02142
2405.15,0.02098
2399.36,0.02122
2393.57,0.02134
2387.79,0.02129
2382,0.02131
2376.21,0.02087
2370.43,0.02053
2364.64,0.02128
2358.86,0.02178
2353.07,0.02165
2347.28,0.02082
2341.5,0.02133
2335.71,0.02120
2329.92,0.02149
2324.14,0.02126
2318.35,0.02163
2312.57,0.02102
2306.78,0.02160
2300.99,0.02136
2295.21,0.02125
2289.42,0.02095
2283.63,0.02114
2277.85,0.02097
2272.06,0.02124
2266.28,0.02116
2260.49,0.02083
2254.7,0.02113
2248.92,0.02101
2243.13,0.02090
2237.34,0.02096
2231.56,0.02122
2225.77,0.02099
2219.99,0.02128
2214.2,0.02120
2208.41,0.02101
2202.63,0.02107
2196.84,0.02107
2191.05,0.02087
2185.27,0.02082
2179.48,0.02115
2173.7,0.02134
2167.91,0.02071
2162.12,0.02095
2156.34,0.02118
2150.55,0.02110
2144.76,0.02084
2138.98,0.02089
2133.19,0.02112
2127.41,0.02134
2121.62,0.02098
2115.83,0.02074
2110.05,0.02124
2104.26,0.02132
2098.47,0.02109
2092.69,0.02125
2086.9,0.02113
2081.12,0.02108
2075.33,0.02085
2069.54,0.02107
2063.76,0.02095
2057.97,0.02102
2052.19,0.02069
2046.4,0.02109
2040.61,0.02093
2034.83,0.02072
2029.04,0.02093
2023.25,0.02080
2017.47,0.02091
2011.68,0.02085
2005.9,0.02115
2000.11,0.02077
1994.32,0.02072
1988.54,0.02063
1982.75,0.02073
1976.96,0.02093
1971.18,0.02073
1965.39,0.02135
1959.61,0.02094
1953.82,0.02085
1948.03,0.02068
1942.25,0.02067
1936.46,0.02095
1930.67,0.02067
1924.89,0.02078
1919.1,0.02082
1913.32,0.02084
1907.53,0.02071
1901.74,0.02063
1895.96,0.02073
1890.17,0.02101
1884.38,0.02044
1878.6,0.02062
1872.81,0.02058
1867.03,0.02059
1861.24,0.02020
1855.45,0.02049
1849.67,0.02061
1843.88,0.02091
1838.09,0.02031
1832.31,0.01991
1826.52,0.01991
1820.74,0.02017
1814.95,0.01988
1809.16,0.01986
1803.38,0.02001
1797.59,0.01959
1791.8,0.01987
1786.02,0.01935
1780.23,0.01933
1774.45,0.01865
1768.66,0.01853
1762.87,0.01837
1757.09,0.01776
1751.3,0.01764
1745.51,0.01766
1739.73,0.01865
1733.94,0.01988
1728.16,0.02070
1722.37,0.02089
1716.58,0.02069
1710.8,0.02051
1705.01,0.02014
1699.22,0.01990
1693.44,0.01926
1687.65,0.01911
1681.87,0.01887
1676.08,0.01891
1670.29,0.01902
1664.51,0.01894
1658.72,0.01816
1652.93,0.01870
1647.15,0.01829
1641.36,0.01878
1635.58,0.01873
1629.79,0.01830
1624,0.01866
1618.22,0.01908
1612.43,0.01878
1606.64,0.01899
1600.86,0.01893
1595.07,0.01899
1589.29,0.01846
1583.5,0.01804
1577.71,0.01837
1571.93,0.01825
1566.14,0.01818
1560.35,0.01799
1554.57,0.01836
1548.78,0.01827
1543,0.01861
1537.21,0.01844
1531.42,0.01850
1525.64,0.01872
1519.85,0.01873
1514.07,0.01879
1508.28,0.01851
1502.49,0.01844
1496.71,0.01918
1490.92,0.01919
1485.13,0.01896
1479.35,0.01860
1473.56,0.01851
1467.78,0.01830
1461.99,0.01864
1456.2,0.01890
1450.42,0.01893
1444.63,0.01902
1438.84,0.01877
1433.06,0.01875
1427.27,0.01857
1421.49,0.01870
1415.7,0.01825
1409.91,0.01865
1404.13,0.01843
1398.34,0.01858
1392.55,0.01807
1386.77,0.01800
1380.98,0.01781
1375.2,0.01834
1369.41,0.01844
1363.62,0.01815
1357.84,0.01818
1352.05,0.01835
1346.26,0.01836
1340.48,0.01790
1334.69,0.01760
1328.91,0.01733
1323.12,0.01730
1317.33,0.01726
1311.55,0.01727
1305.76,0.01698
1299.97,0.01768
1294.19,0.01829
1288.4,0.01871
1282.62,0.01891
1276.83,0.01914
1271.04,0.01933
1265.26,0.01940
1259.47,0.02007
1253.68,0.02000
1247.9,0.02056
1242.11,0.01996
1236.33,0.01987
1230.54,0.01942
1224.75,0.01949
1218.97,0.01967
1213.18,0.01938
1207.39,0.01877
1201.61,0.01863
1195.82,0.01883
1190.04,0.01848
1184.25,0.01794
1178.46,0.01823
1172.68,0.01796
1166.89,0.01814
1161.1,0.01709
1155.32,0.01785
1149.53,0.01759
1143.75,0.01749
1137.96,0.01821
1132.17,0.01801
1126.39,0.01856
1120.6,0.01918
1114.81,0.01894
1109.03,0.01856
1103.24,0.01894
1097.46,0.01884
1091.67,0.01874
1085.88,0.01825
1080.1,0.01829
1074.31,0.01938
1068.52,0.01913
1062.74,0.01885
1056.95,0.02045
1051.17,0.01931
1045.38,0.01941
1039.59,0.01966
1033.81,0.01959
1028.02,0.01906
1022.24,0.01922
1016.45,0.01943
1010.66,0.01978
1004.88,0.02054
999.09,0.02113
993.304,0.02092
987.518,0.02138
981.731,0.02109
975.945,0.02014
970.159,0.02034
964.373,0.02063
958.586,0.02027
952.8,0.01964
947.014,0.01955
941.228,0.01954
935.441,0.01999
929.655,0.01942
923.869,0.01930
918.083,0.01947
912.297,0.01995
906.51,0.01885
900.724,0.01903
894.938,0.01991
889.152,0.01944
883.365,0.01958
877.579,0.01998
871.793,0.01887
866.007,0.01847
860.22,0.01877
854.434,0.01896
848.648,0.01899
842.862,0.01935
837.075,0.01855
831.289,0.01856
825.503,0.01909
819.717,0.01841
813.931,0.01857
808.144,0.01890
802.358,0.01846
796.572,0.01863
790.786,0.01853
784.999,0.01907
779.213,0.01900
773.427,0.01854
767.641,0.01862
761.854,0.01826
756.068,0.01860
750.282,0.01791
744.496,0.01769
738.709,0.01793
732.923,0.01841
727.137,0.01816
721.351,0.01824
715.565,0.01836
709.778,0.01753
703.992,0.01856
698.206,0.01753
692.42,0.01843
686.633,0.01762
680.847,0.01876
675.061,0.01816
669.275,0.01831
663.488,0.01694
657.702,0.01744
651.916,0.01709
646.13,0.01686
640.343,0.01797
634.557,0.01592
628.771,0.01674
622.985,0.01821
617.198,0.01746
611.412,0.01453
605.626,0.01576
599.84,0.01635