File: 01_Data/Triexta_Carpet_High_Pile/FTIR/IS/Triexta_Carpet_High_Pile_IS_S_221121_R3.dpt
7497.03,0.85317
7491.25,0.83302
7485.46,0.83894
7479.67,0.83829
7473.89,0.83408
7468.1,0.84201
7462.32,0.83161
7456.53,0.84089
7450.74,0.84563
7444.96,0.83824
7439.17,0.82681
7433.38,0.82927
7427.6,0.82530
7421.81,0.82270
7416.03,0.81954
7410.24,0.82578
7404.45,0.82421
7398.67,0.82324
7392.88,0.81644
7387.09,0.80955
7381.31,0.81734
7375.52,0.80673
7369.74,0.80209
7363.95,0.80138
7358.16,0.80795
7352.38,0.79991
7346.59,0.79267
7340.8,0.79202
7335.02,0.79171
7329.23,0.79246
7323.45,0.78558
7317.66,0.78956
7311.87,0.79137
7306.09,0.79800
7300.3,0.79338
7294.51,0.80223
7288.73,0.79940
7282.94,0.79255
7277.16,0.79563
7271.37,0.80694
7265.58,0.79886
7259.8,0.79632
7254.01,0.79414
7248.22,0.79097
7242.44,0.78769
7236.65,0.78457
7230.87,0.78872
7225.08,0.78484
7219.29,0.78819
7213.51,0.78014
7207.72,0.77558
7201.93,0.78046
7196.15,0.77928
7190.36,0.78737
7184.58,0.78763
7178.79,0.78293
7173,0.79292
7167.22,0.78784
7161.43,0.77706
7155.65,0.78042
7149.86,0.78240
7144.07,0.77781
7138.29,0.78393
7132.5,0.78704
7126.71,0.78276
7120.93,0.78647
7115.14,0.78598
7109.36,0.78309
7103.57,0.77868
7097.78,0.78036
7092,0.78073
7086.21,0.78333
7080.42,0.77957
7074.64,0.78042
7068.85,0.77986
7063.07,0.77489
7057.28,0.78071
7051.49,0.77723
7045.71,0.78218
7039.92,0.77996
7034.13,0.77576
7028.35,0.78103
7022.56,0.76940
7016.78,0.77391
7010.99,0.78018
7005.2,0.77325
6999.42,0.77741
6993.63,0.78907
6987.84,0.78250
6982.06,0.78103
6976.27,0.79122
6970.49,0.79109
6964.7,0.79500
6958.91,0.80101
6953.13,0.79967
6947.34,0.79764
6941.55,0.80101
6935.77,0.80420
6929.98,0.80171
6924.2,0.80579
6918.41,0.80774
6912.62,0.80392
6906.84,0.80194
6901.05,0.79536
6895.26,0.80117
6889.48,0.80059
6883.69,0.81170
6877.91,0.80453
6872.12,0.80998
6866.33,0.80568
6860.55,0.80298
6854.76,0.80283
6848.97,0.81084
6843.19,0.81256
6837.4,0.81478
6831.62,0.81315
6825.83,0.80997
6820.04,0.81517
6814.26,0.82255
6808.47,0.82290
6802.68,0.82201
6796.9,0.82207
6791.11,0.82384
6785.33,0.82718
6779.54,0.83037
6773.75,0.82114
6767.97,0.82179
6762.18,0.81810
6756.39,0.82462
6750.61,0.82560
6744.82,0.82826
6739.04,0.82510
6733.25,0.82450
6727.46,0.82230
6721.68,0.83152
6715.89,0.83219
6710.1,0.82824
6704.32,0.83330
6698.53,0.83585
6692.75,0.83571
6686.96,0.83402
6681.17,0.83233
6675.39,0.83369
6669.6,0.83395
6663.82,0.82982
6658.03,0.83528
6652.24,0.83506
6646.46,0.83622
6640.67,0.83970
6634.88,0.84804
6629.1,0.83899
6623.31,0.84347
6617.53,0.84126
6611.74,0.83964
6605.95,0.83833
6600.17,0.84669
6594.38,0.84753
6588.59,0.83929
6582.81,0.83871
6577.02,0.84212
6571.24,0.84026
6565.45,0.84737
6559.66,0.84921
6553.88,0.84558
6548.09,0.84709
6542.3,0.84420
6536.52,0.85155
6530.73,0.84716
6524.95,0.84644
6519.16,0.84130
6513.37,0.84281
6507.59,0.84139
6501.8,0.84589
6496.01,0.83731
6490.23,0.84026
6484.44,0.83780
6478.66,0.84248
6472.87,0.84108
6467.08,0.84316
6461.3,0.84230
6455.51,0.84092
6449.72,0.84117
6443.94,0.83742
6438.15,0.83934
6432.37,0.84318
6426.58,0.83914
6420.79,0.83783
6415.01,0.83883
6409.22,0.83951
6403.43,0.84109
6397.65,0.84498
6391.86,0.83747
6386.08,0.83544
6380.29,0.83741
6374.5,0.84145
6368.72,0.83950
6362.93,0.83906
6357.14,0.83871
6351.36,0.83583
6345.57,0.84313
6339.79,0.83810
6334,0.83411
6328.21,0.83251
6322.43,0.83082
6316.64,0.83175
6310.85,0.83451
6305.07,0.83752
6299.28,0.83229
6293.5,0.83297
6287.71,0.83476
6281.92,0.83529
6276.14,0.83186
6270.35,0.82902
6264.56,0.82914
6258.78,0.82737
6252.99,0.82776
6247.21,0.82671
6241.42,0.82131
6235.63,0.82043
6229.85,0.82020
6224.06,0.82158
6218.27,0.81350
6212.49,0.80453
6206.7,0.79550
6200.92,0.78398
6195.13,0.77139
6189.34,0.77444
6183.56,0.77787
6177.77,0.78439
6171.98,0.78167
6166.2,0.78330
6160.41,0.77550
6154.63,0.76815
6148.84,0.76218
6143.05,0.75592
6137.27,0.75470
6131.48,0.75590
6125.7,0.74860
6119.91,0.73957
6114.12,0.72666
6108.34,0.70569
6102.55,0.68196
6096.76,0.65947
6090.98,0.63649
6085.19,0.61795
6079.41,0.60573
6073.62,0.58731
6067.83,0.56325
6062.05,0.53494
6056.26,0.51251
6050.47,0.50280
6044.69,0.48951
6038.9,0.48009
6033.12,0.47477
6027.33,0.46733
6021.54,0.46669
6015.76,0.47113
6009.97,0.48553
6004.18,0.50371
5998.4,0.52279
5992.61,0.53809
5986.83,0.55437
5981.04,0.56463
5975.25,0.56988
5969.47,0.57840
5963.68,0.57785
5957.89,0.57759
5952.11,0.56948
5946.32,0.55999
5940.54,0.55567
5934.75,0.56415
5928.96,0.57460
5923.18,0.59174
5917.39,0.60049
5911.6,0.60819
5905.82,0.61108
5900.03,0.61105
5894.25,0.61118
5888.46,0.61444
5882.67,0.61684
5876.89,0.62038
5871.1,0.62858
5865.31,0.63339
5859.53,0.63625
5853.74,0.63524
5847.96,0.63355
5842.17,0.62950
5836.38,0.62433
5830.6,0.61507
5824.81,0.60294
5819.02,0.59426
5813.24,0.58437
5807.45,0.57736
5801.67,0.57304
5795.88,0.57283
5790.09,0.57764
5784.31,0.58750
5778.52,0.60207
5772.73,0.61170
5766.95,0.61800
5761.16,0.62229
5755.38,0.62022
5749.59,0.62343
5743.8,0.62779
5738.02,0.62955
5732.23,0.63533
5726.44,0.64056
5720.66,0.64435
5714.87,0.65137
5709.09,0.65329
5703.3,0.65744
5697.51,0.66466
5691.73,0.66768
5685.94,0.66940
5680.15,0.67212
5674.37,0.67560
5668.58,0.67645
5662.8,0.67553
5657.01,0.67632
5651.22,0.67338
5645.44,0.67715
5639.65,0.68401
5633.87,0.69096
5628.08,0.69729
5622.29,0.69736
5616.51,0.70695
5610.72,0.71066
5604.93,0.70839
5599.15,0.70968
5593.36,0.71196
5587.58,0.70752
5581.79,0.70157
5576,0.70024
5570.22,0.69718
5564.43,0.69499
5558.64,0.69262
5552.86,0.69175
5547.07,0.68924
5541.29,0.69080
5535.5,0.69443
5529.71,0.69677
5523.93,0.69931
5518.14,0.70015
5512.35,0.70408
5506.57,0.70540
5500.78,0.70917
5495,0.70874
5489.21,0.70676
5483.42,0.70147
5477.64,0.69911
5471.85,0.69992
5466.06,0.70151
5460.28,0.70438
5454.49,0.70996
5448.71,0.71699
5442.92,0.72015
5437.13,0.72408
5431.35,0.72475
5425.56,0.72830
5419.77,0.73136
5413.99,0.72978
5408.2,0.73010
5402.42,0.72996
5396.63,0.72819
5390.84,0.73060
5385.06,0.73293
5379.27,0.73052
5373.48,0.72922
5367.7,0.72990
5361.91,0.72780
5356.13,0.72703
5350.34,0.72617
5344.55,0.72582
5338.77,0.72849
5332.98,0.72937
5327.19,0.73258
5321.41,0.73538
5315.62,0.73678
5309.84,0.73653
5304.05,0.73578
5298.26,0.73357
5292.48,0.73125
5286.69,0.72963
5280.9,0.72675
5275.12,0.72434
5269.33,0.72072
5263.55,0.71678
5257.76,0.71796
5251.97,0.72140
5246.19,0.72225
5240.4,0.72499
5234.61,0.72552
5228.83,0.72725
5223.04,0.72577
5217.26,0.72387
5211.47,0.72305
5205.68,0.72385
5199.9,0.72419
5194.11,0.72512
5188.32,0.72451
5182.54,0.72025
5176.75,0.72165
5170.97,0.72163
5165.18,0.72004
5159.39,0.71699
5153.61,0.71635
5147.82,0.71460
5142.03,0.70848
5136.25,0.70130
5130.46,0.69474
5124.68,0.68851
5118.89,0.68304
5113.1,0.68056
5107.32,0.67920
5101.53,0.68019
5095.75,0.67807
5089.96,0.67870
5084.17,0.68638
5078.39,0.69804
5072.6,0.70915
5066.81,0.71713
5061.03,0.72340
5055.24,0.72740
5049.46,0.72953
5043.67,0.72824
5037.88,0.72855
5032.1,0.72801
5026.31,0.72605
5020.52,0.72639
5014.74,0.72462
5008.95,0.72604
5003.17,0.72766
4997.38,0.72640
4991.59,0.72750
4985.81,0.72662
4980.02,0.72896
4974.23,0.73133
4968.45,0.73217
4962.66,0.73058
4956.88,0.72812
4951.09,0.72615
4945.3,0.72216
4939.52,0.72053
4933.73,0.71890
4927.94,0.71884
4922.16,0.71752
4916.37,0.71913
4910.59,0.71745
4904.8,0.71568
4899.01,0.71392
4893.23,0.71367
4887.44,0.71120
4881.65,0.71056
4875.87,0.70815
4870.08,0.70692
4864.3,0.70456
4858.51,0.70212
4852.72,0.70014
4846.94,0.69852
4841.15,0.69386
4835.36,0.68384
4829.58,0.67156
4823.79,0.65990
4818.01,0.64890
4812.22,0.64261
4806.43,0.63588
4800.65,0.62874
4794.86,0.62767
4789.07,0.62753
4783.29,0.63231
4777.5,0.64001
4771.72,0.64520
4765.93,0.65097
4760.14,0.65187
4754.36,0.64422
4748.57,0.63257
4742.78,0.62021
4737,0.60141
4731.21,0.57594
4725.43,0.53939
4719.64,0.50942
4713.85,0.50571
4708.07,0.49872
4702.28,0.47873
4696.49,0.44838
4690.71,0.42591
4684.92,0.42577
4679.14,0.44645
4673.35,0.47807
4667.56,0.50348
4661.78,0.51528
4655.99,0.51728
4650.2,0.51234
4644.42,0.49155
4638.63,0.46789
4632.85,0.46341
4627.06,0.48317
4621.27,0.51635
4615.49,0.54578
4609.7,0.56756
4603.92,0.57386
4598.13,0.56504
4592.34,0.54338
4586.56,0.53070
4580.77,0.51285
4574.98,0.51595
4569.2,0.55308
4563.41,0.58819
4557.63,0.60420
4551.84,0.60696
4546.05,0.60630
4540.27,0.60448
4534.48,0.60175
4528.69,0.59838
4522.91,0.59069
4517.12,0.58166
4511.34,0.56968
4505.55,0.55015
4499.76,0.52143
4493.98,0.48521
4488.19,0.46511
4482.4,0.46049
4476.62,0.45666
4470.83,0.44554
4465.05,0.42632
4459.26,0.40296
4453.47,0.38438
4447.69,0.36583
4441.9,0.34362
4436.11,0.32662
4430.33,0.31390
4424.54,0.30959
4418.76,0.31955
4412.97,0.33546
4407.18,0.34125
4401.4,0.34527
4395.61,0.35659
4389.82,0.36718
4384.04,0.36774
4378.25,0.36093
4372.47,0.34866
4366.68,0.33936
4360.89,0.33706
4355.11,0.33889
4349.32,0.34344
4343.53,0.34967
4337.75,0.35570
4331.96,0.35888
4326.18,0.36463
4320.39,0.36942
4314.6,0.37563
4308.82,0.37662
4303.03,0.37073
4297.24,0.36140
4291.46,0.35420
4285.67,0.35242
4279.89,0.34920
4274.1,0.34214
4268.31,0.33803
4262.53,0.33989
4256.74,0.34671
4250.95,0.35146
4245.17,0.35472
4239.38,0.35507
4233.6,0.35331
4227.81,0.34844
4222.02,0.34677
4216.24,0.34722
4210.45,0.34658
4204.66,0.34828
4198.88,0.35351
4193.09,0.35920
4187.31,0.35920
4181.52,0.34911
4175.73,0.34357
4169.95,0.35830
4164.16,0.37802
4158.37,0.39398
4152.59,0.40435
4146.8,0.41278
4141.02,0.41458
4135.23,0.40956
4129.44,0.40017
4123.66,0.38972
4117.87,0.37665
4112.09,0.35878
4106.3,0.33482
4100.51,0.30451
4094.73,0.26663
4088.94,0.24426
4083.15,0.26006
4077.37,0.29006
4071.58,0.31766
4065.8,0.33678
4060.01,0.35031
4054.22,0.35851
4048.44,0.36536
4042.65,0.37480
4036.86,0.38421
4031.08,0.38610
4025.29,0.38805
4019.51,0.39493
4013.72,0.39855
4007.93,0.40381
4002.15,0.41399
3996.36,0.42500
3990.57,0.43397
3984.79,0.43981
3979,0.44422
3973.22,0.44616
3967.43,0.44758
3961.64,0.44423
3955.86,0.43895
3950.07,0.43218
3944.28,0.42382
3938.5,0.41946
3932.71,0.41620
3926.93,0.41407
3921.14,0.41315
3915.35,0.41585
3909.57,0.42186
3903.78,0.43157
3897.99,0.43869
3892.21,0.44460
3886.42,0.45412
3880.64,0.46450
3874.85,0.47139
3869.06,0.47705
3863.28,0.48118
3857.49,0.48363
3851.7,0.48829
3845.92,0.49287
3840.13,0.49506
3834.35,0.49039
3828.56,0.48908
3822.77,0.49129
3816.99,0.48417
3811.2,0.47098
3805.41,0.46677
3799.63,0.48395
3793.84,0.50389
3788.06,0.51542
3782.27,0.51612
3776.48,0.50834
3770.7,0.49717
3764.91,0.48473
3759.12,0.47092
3753.34,0.47633
3747.55,0.50269
3741.77,0.51089
3735.98,0.49781
3730.19,0.49119
3724.41,0.50803
3718.62,0.51740
3712.83,0.51383
3707.05,0.50159
3701.26,0.48080
3695.48,0.45115
3689.69,0.41332
3683.9,0.41644
3678.12,0.46065
3672.33,0.50205
3666.54,0.52000
3660.76,0.52307
3654.97,0.51939
3649.19,0.51017
3643.4,0.49981
3637.61,0.48917
3631.83,0.48061
3626.04,0.46997
3620.25,0.45864
3614.47,0.44656
3608.68,0.43323
3602.9,0.41862
3597.11,0.40003
3591.32,0.37864
3585.54,0.35480
3579.75,0.33176
3573.97,0.31106
3568.18,0.29513
3562.39,0.28292
3556.61,0.27434
3550.82,0.27000
3545.03,0.26865
3539.25,0.27009
3533.46,0.27480
3527.68,0.28260
3521.89,0.29151
3516.1,0.30063
3510.32,0.30953
3504.53,0.31789
3498.74,0.32410
3492.96,0.32821
3487.17,0.33052
3481.39,0.33048
3475.6,0.32624
3469.81,0.31752
3464.03,0.30263
3458.24,0.28298
3452.45,0.25985
3446.67,0.23210
3440.88,0.20443
3435.1,0.18102
3429.31,0.16736
3423.52,0.16683
3417.74,0.16656
3411.95,0.16950
3406.16,0.19792
3400.38,0.24687
3394.59,0.28642
3388.81,0.30923
3383.02,0.32321
3377.23,0.33327
3371.45,0.33799
3365.66,0.33881
3359.87,0.33494
3354.09,0.32792
3348.3,0.31657
3342.52,0.30331
3336.73,0.28938
3330.94,0.28143
3325.16,0.28680
3319.37,0.30347
3313.58,0.31533
3307.8,0.31716
3302.01,0.31158
3296.23,0.30586
3290.44,0.30361
3284.65,0.31009
3278.87,0.31975
3273.08,0.32516
3267.29,0.32761
3261.51,0.32813
3255.72,0.32744
3249.94,0.32445
3244.15,0.32139
3238.36,0.31670
3232.58,0.31158
3226.79,0.30829
3221,0.30788
3215.22,0.31412
3209.43,0.31950
3203.65,0.31981
3197.86,0.31528
3192.07,0.31150
3186.29,0.30865
3180.5,0.30621
3174.71,0.30288
3168.93,0.29924
3163.14,0.29540
3157.36,0.29031
3151.57,0.28309
3145.78,0.27553
3140,0.26392
3134.21,0.24809
3128.42,0.23077
3122.64,0.23135
3116.85,0.23138
3111.07,0.21565
3105.28,0.19665
3099.49,0.19116
3093.71,0.19827
3087.92,0.18440
3082.14,0.16739
3076.35,0.16432
3070.56,0.15944
3064.78,0.15687
3058.99,0.15482
3053.2,0.15380
3047.42,0.18516
3041.63,0.21551
3035.85,0.21855
3030.06,0.20710
3024.27,0.18617
3018.49,0.15812
3012.7,0.13102
3006.91,0.10769
3001.13,0.08588
2995.34,0.06699
2989.56,0.04933
2983.77,0.03784
2977.98,0.03451
2972.2,0.03264
2966.41,0.03374
2960.62,0.03627
2954.84,0.04229
2949.05,0.05556
2943.27,0.06738
2937.48,0.07476
2931.69,0.07804
2925.91,0.07907
2920.12,0.07800
2914.33,0.07319
2908.55,0.05847
2902.76,0.05056
2896.98,0.06422
2891.19,0.08284
2885.4,0.09581
2879.62,0.10606
2873.83,0.11326
2868.04,0.11652
2862.26,0.11797
2856.47,0.12176
2850.69,0.13158
2844.9,0.15472
2839.11,0.17474
2833.33,0.18820
2827.54,0.20463
2821.75,0.22602
2815.97,0.24038
2810.18,0.24340
2804.4,0.24676
2798.61,0.25705
2792.82,0.26340
2787.04,0.26447
2781.25,0.26534
2775.46,0.26712
2769.68,0.27147
2763.89,0.28333
2758.11,0.29584
2752.32,0.30353
2746.53,0.30413
2740.75,0.30444
2734.96,0.31559
2729.17,0.33100
2723.39,0.34292
2717.6,0.34522
2711.82,0.34480
2706.03,0.35383
2700.24,0.36324
2694.46,0.36702
2688.67,0.36816
2682.88,0.36686
2677.1,0.36804
2671.31,0.36606
2665.53,0.36375
2659.74,0.36081
2653.95,0.35518
2648.17,0.34649
2642.38,0.33670
2636.59,0.32441
2630.81,0.31292
2625.02,0.31439
2619.24,0.32161
2613.45,0.32813
2607.66,0.33153
2601.88,0.33016
2596.09,0.32376
2590.3,0.31105
2584.52,0.29754
2578.73,0.29065
2572.95,0.29269
2567.16,0.29476
2561.37,0.29146
2555.59,0.28585
2549.8,0.28091
2544.02,0.27767
2538.23,0.27716
2532.44,0.28071
2526.66,0.28861
2520.87,0.29770
2515.08,0.30660
2509.3,0.31656
2503.51,0.32573
2497.73,0.33115
2491.94,0.33387
2486.15,0.33626
2480.37,0.34451
2474.58,0.35534
2468.79,0.36145
2463.01,0.36345
2457.22,0.36257
2451.44,0.35955
2445.65,0.35390
2439.86,0.33975
2434.08,0.31694
2428.29,0.29886
2422.5,0.28247
2416.72,0.26484
2410.93,0.25117
2405.15,0.24071
2399.36,0.23065
2393.57,0.22345
2387.79,0.21956
2382,0.21912
2376.21,0.22120
2370.43,0.22890
2364.64,0.24430
2358.86,0.26465
2353.07,0.28619
2347.28,0.30559
2341.5,0.32238
2335.71,0.33391
2329.92,0.33667
2324.14,0.33478
2318.35,0.34980
2312.57,0.35875
2306.78,0.35482
2300.99,0.34225
2295.21,0.32127
2289.42,0.29731
2283.63,0.28512
2277.85,0.29016
2272.06,0.30205
2266.28,0.30574
2260.49,0.30220
2254.7,0.29394
2248.92,0.28316
2243.13,0.27704
2237.34,0.27617
2231.56,0.27459
2225.77,0.27421
2219.99,0.27533
2214.2,0.27261
2208.41,0.27122
2202.63,0.28171
2196.84,0.28901
2191.05,0.29359
2185.27,0.30150
2179.48,0.30921
2173.7,0.30939
2167.91,0.30373
2162.12,0.29540
2156.34,0.28586
2150.55,0.27766
2144.76,0.27229
2138.98,0.26801
2133.19,0.26413
2127.41,0.25995
2121.62,0.25513
2115.83,0.25001
2110.05,0.24850
2104.26,0.24832
2098.47,0.24857
2092.69,0.24985
2086.9,0.25362
2081.12,0.25773
2075.33,0.26244
2069.54,0.26335
2063.76,0.26064
2057.97,0.26220
2052.19,0.26948
2046.4,0.27624
2040.61,0.27297
2034.83,0.26321
2029.04,0.25797
2023.25,0.26079
2017.47,0.26029
2011.68,0.26070
2005.9,0.26253
2000.11,0.25617
1994.32,0.24523
1988.54,0.23733
1982.75,0.23362
1976.96,0.22273
1971.18,0.20496
1965.39,0.18008
1959.61,0.15306
1953.82,0.13377
1948.03,0.14171
1942.25,0.17013
1936.46,0.19770
1930.67,0.22087
1924.89,0.24014
1919.1,0.25368
1913.32,0.26055
1907.53,0.26025
1901.74,0.25391
1895.96,0.24623
1890.17,0.23917
1884.38,0.23052
1878.6,0.23063
1872.81,0.22937
1867.03,0.21868
1861.24,0.20756
1855.45,0.19614
1849.67,0.17857
1843.88,0.15599
1838.09,0.13650
1832.31,0.12062
1826.52,0.10872
1820.74,0.10542
1814.95,0.10550
1809.16,0.10246
1803.38,0.09784
1797.59,0.09380
1791.8,0.08977
1786.02,0.08342
1780.23,0.07560
1774.45,0.06814
1768.66,0.05916
1762.87,0.04923
1757.09,0.03792
1751.3,0.02805
1745.51,0.01959
1739.73,0.01561
1733.94,0.01651
1728.16,0.02130
1722.37,0.02772
1716.58,0.03312
1710.8,0.03133
1705.01,0.02876
1699.22,0.03128
1693.44,0.03727
1687.65,0.04273
1681.87,0.04520
1676.08,0.04672
1670.29,0.05524
1664.51,0.07467
1658.72,0.09029
1652.93,0.09935
1647.15,0.10610
1641.36,0.11183
1635.58,0.11728
1629.79,0.12350
1624,0.12550
1618.22,0.11216
1612.43,0.10000
1606.64,0.11776
1600.86,0.13666
1595.07,0.13942
1589.29,0.12644
1583.5,0.09143
1577.71,0.06531
1571.93,0.09122
1566.14,0.12063
1560.35,0.13087
1554.57,0.13235
1548.78,0.13548
1543,0.13265
1537.21,0.11945
1531.42,0.09903
1525.64,0.09329
1519.85,0.09436
1514.07,0.07838
1508.28,0.04250
1502.49,0.03686
1496.71,0.08390
1490.92,0.10135
1485.13,0.07863
1479.35,0.04970
1473.56,0.03133
1467.78,0.02580
1461.99,0.02730
1456.2,0.03226
1450.42,0.03926
1444.63,0.04888
1438.84,0.05212
1433.06,0.05069
1427.27,0.03939
1421.49,0.02843
1415.7,0.02049
1409.91,0.01807
1404.13,0.02207
1398.34,0.02504
1392.55,0.02333
1386.77,0.02285
1380.98,0.02457
1375.2,0.02745
1369.41,0.02979
1363.62,0.02765
1357.84,0.02402
1352.05,0.02845
1346.26,0.03199
1340.48,0.02762
1334.69,0.02258
1328.91,0.02014
1323.12,0.01842
1317.33,0.01670
1311.55,0.01529
1305.76,0.01441
1299.97,0.01541
1294.19,0.01735
1288.4,0.02106
1282.62,0.02797
1276.83,0.03537
1271.04,0.03943
1265.26,0.03872
1259.47,0.03654
1253.68,0.03539
1247.9,0.03740
1242.11,0.03605
1236.33,0.03369
1230.54,0.03441
1224.75,0.03613
1218.97,0.04175
1213.18,0.05331
1207.39,0.05901
1201.61,0.06533
1195.82,0.07585
1190.04,0.08019
1184.25,0.07132
1178.46,0.05315
1172.68,0.04465
1166.89,0.04694
1161.1,0.04262
1155.32,0.03389
1149.53,0.02446
1143.75,0.01957
1137.96,0.01715
1132.17,0.01981
1126.39,0.02699
1120.6,0.02673
1114.81,0.02488
1109.03,0.02565
1103.24,0.02978
1097.46,0.02947
1091.67,0.02822
1085.88,0.02941
1080.1,0.03504
1074.31,0.04807
1068.52,0.06148
1062.74,0.06559
1056.95,0.05795
1051.17,0.04073
1045.38,0.03045
1039.59,0.03073
1033.81,0.03221
1028.02,0.02922
1022.24,0.02663
1016.45,0.03213
1010.66,0.06622
1004.88,0.10521
999.09,0.12065
993.304,0.11666
987.518,0.09906
981.731,0.08200
975.945,0.07106
970.159,0.07473
964.373,0.08861
958.586,0.08627
952.8,0.06799
947.014,0.06135
941.228,0.06224
935.441,0.06062
929.655,0.07023
923.869,0.08662
918.083,0.09636
912.297,0.09364
906.51,0.08681
900.724,0.09300
894.938,0.10217
889.152,0.10314
883.365,0.07753
877.579,0.04288
871.793,0.03492
866.007,0.07635
860.22,0.08693
854.434,0.07194
848.648,0.06957
842.862,0.07688
837.075,0.09548
831.289,0.10726
825.503,0.10798
819.717,0.10771
813.931,0.11029
808.144,0.11174
802.358,0.11628
796.572,0.08554
790.786,0.10209
784.999,0.13344
779.213,0.13007
773.427,0.12017
767.641,0.12521
761.854,0.12699
756.068,0.11943
750.282,0.10180
744.496,0.06196
738.709,0.02283
732.923,0.02065
727.137,0.02942
721.351,0.04222
715.565,0.08577
709.778,0.10795
703.992,0.11684
698.206,0.15994
692.42,0.18636
686.633,0.18748
680.847,0.17380
675.061,0.19044
669.275,0.20206
663.488,0.20921
657.702,0.21189
651.916,0.21668
646.13,0.21790
640.343,0.22021
634.557,0.18971
628.771,0.20520
622.985,0.23079
617.198,0.23642
611.412,0.23947
605.626,0.24067
599.84,0.23980