File: 01_Data/Triexta_Carpet_High_Pile/FTIR/IS/Triexta_Carpet_High_Pile_IS_S_221121_R4.dpt
7497.03,0.85068
7491.25,0.84315
7485.46,0.84420
7479.67,0.83455
7473.89,0.84512
7468.1,0.83415
7462.32,0.84121
7456.53,0.83967
7450.74,0.84956
7444.96,0.83327
7439.17,0.84161
7433.38,0.83418
7427.6,0.82882
7421.81,0.82778
7416.03,0.82484
7410.24,0.82981
7404.45,0.82085
7398.67,0.82450
7392.88,0.82101
7387.09,0.81014
7381.31,0.82399
7375.52,0.81822
7369.74,0.80643
7363.95,0.80619
7358.16,0.81242
7352.38,0.79767
7346.59,0.79531
7340.8,0.79665
7335.02,0.79250
7329.23,0.79006
7323.45,0.78499
7317.66,0.77885
7311.87,0.79101
7306.09,0.80059
7300.3,0.80116
7294.51,0.79581
7288.73,0.80364
7282.94,0.79644
7277.16,0.79516
7271.37,0.78640
7265.58,0.79645
7259.8,0.79264
7254.01,0.78966
7248.22,0.80115
7242.44,0.79619
7236.65,0.78989
7230.87,0.78590
7225.08,0.78819
7219.29,0.79064
7213.51,0.77741
7207.72,0.77565
7201.93,0.77527
7196.15,0.77631
7190.36,0.77767
7184.58,0.78676
7178.79,0.78348
7173,0.78916
7167.22,0.78769
7161.43,0.79050
7155.65,0.78084
7149.86,0.78623
7144.07,0.78061
7138.29,0.78564
7132.5,0.78837
7126.71,0.78714
7120.93,0.79525
7115.14,0.78888
7109.36,0.78551
7103.57,0.78731
7097.78,0.77477
7092,0.78512
7086.21,0.78258
7080.42,0.78163
7074.64,0.78960
7068.85,0.78174
7063.07,0.78576
7057.28,0.78396
7051.49,0.78305
7045.71,0.78063
7039.92,0.77149
7034.13,0.76980
7028.35,0.78024
7022.56,0.77269
7016.78,0.77281
7010.99,0.77625
7005.2,0.77284
6999.42,0.78514
6993.63,0.78359
6987.84,0.78556
6982.06,0.78785
6976.27,0.79654
6970.49,0.79700
6964.7,0.80417
6958.91,0.79787
6953.13,0.79780
6947.34,0.80030
6941.55,0.79594
6935.77,0.79964
6929.98,0.79220
6924.2,0.80120
6918.41,0.80459
6912.62,0.80227
6906.84,0.80424
6901.05,0.80177
6895.26,0.80746
6889.48,0.80088
6883.69,0.79854
6877.91,0.80358
6872.12,0.80365
6866.33,0.81853
6860.55,0.81115
6854.76,0.81180
6848.97,0.80843
6843.19,0.80723
6837.4,0.81529
6831.62,0.81690
6825.83,0.81631
6820.04,0.82302
6814.26,0.81029
6808.47,0.82280
6802.68,0.83157
6796.9,0.81931
6791.11,0.82340
6785.33,0.82237
6779.54,0.82745
6773.75,0.82272
6767.97,0.82679
6762.18,0.82848
6756.39,0.82636
6750.61,0.82820
6744.82,0.82715
6739.04,0.83002
6733.25,0.82121
6727.46,0.82902
6721.68,0.82792
6715.89,0.83462
6710.1,0.83565
6704.32,0.83094
6698.53,0.82690
6692.75,0.82708
6686.96,0.82928
6681.17,0.83494
6675.39,0.83099
6669.6,0.83515
6663.82,0.83080
6658.03,0.83606
6652.24,0.83833
6646.46,0.83530
6640.67,0.83091
6634.88,0.83405
6629.1,0.84010
6623.31,0.84376
6617.53,0.84104
6611.74,0.83870
6605.95,0.84117
6600.17,0.84183
6594.38,0.84175
6588.59,0.84287
6582.81,0.83892
6577.02,0.83964
6571.24,0.83904
6565.45,0.83872
6559.66,0.83922
6553.88,0.83848
6548.09,0.84155
6542.3,0.83784
6536.52,0.84020
6530.73,0.84505
6524.95,0.83657
6519.16,0.84074
6513.37,0.84231
6507.59,0.84243
6501.8,0.84263
6496.01,0.84033
6490.23,0.83803
6484.44,0.83986
6478.66,0.84614
6472.87,0.83853
6467.08,0.84088
6461.3,0.84160
6455.51,0.84152
6449.72,0.84040
6443.94,0.83880
6438.15,0.83532
6432.37,0.84491
6426.58,0.83971
6420.79,0.84293
6415.01,0.84042
6409.22,0.83790
6403.43,0.83917
6397.65,0.83973
6391.86,0.83958
6386.08,0.84394
6380.29,0.83692
6374.5,0.83705
6368.72,0.83628
6362.93,0.83904
6357.14,0.84080
6351.36,0.83516
6345.57,0.83770
6339.79,0.83198
6334,0.83317
6328.21,0.83045
6322.43,0.83459
6316.64,0.83348
6310.85,0.83746
6305.07,0.83764
6299.28,0.83716
6293.5,0.83393
6287.71,0.83305
6281.92,0.83611
6276.14,0.83429
6270.35,0.83114
6264.56,0.82681
6258.78,0.82947
6252.99,0.82450
6247.21,0.82773
6241.42,0.82435
6235.63,0.82262
6229.85,0.82365
6224.06,0.81536
6218.27,0.81067
6212.49,0.80834
6206.7,0.79340
6200.92,0.78105
6195.13,0.77196
6189.34,0.77381
6183.56,0.78271
6177.77,0.77975
6171.98,0.78068
6166.2,0.77757
6160.41,0.77219
6154.63,0.76746
6148.84,0.76183
6143.05,0.75711
6137.27,0.75733
6131.48,0.75162
6125.7,0.75193
6119.91,0.74056
6114.12,0.72403
6108.34,0.70338
6102.55,0.67979
6096.76,0.65756
6090.98,0.63254
6085.19,0.61852
6079.41,0.60577
6073.62,0.58807
6067.83,0.55816
6062.05,0.53487
6056.26,0.51428
6050.47,0.50359
6044.69,0.48989
6038.9,0.48113
6033.12,0.47571
6027.33,0.46801
6021.54,0.46675
6015.76,0.47196
6009.97,0.48373
6004.18,0.49954
5998.4,0.52522
5992.61,0.54548
5986.83,0.56049
5981.04,0.56674
5975.25,0.57353
5969.47,0.57491
5963.68,0.57600
5957.89,0.57691
5952.11,0.56920
5946.32,0.55717
5940.54,0.55364
5934.75,0.56277
5928.96,0.57676
5923.18,0.58986
5917.39,0.60111
5911.6,0.60795
5905.82,0.60969
5900.03,0.60937
5894.25,0.61206
5888.46,0.61103
5882.67,0.61367
5876.89,0.62006
5871.1,0.62443
5865.31,0.63373
5859.53,0.63398
5853.74,0.63589
5847.96,0.63627
5842.17,0.62980
5836.38,0.62229
5830.6,0.61404
5824.81,0.60595
5819.02,0.59315
5813.24,0.58505
5807.45,0.57527
5801.67,0.57508
5795.88,0.57395
5790.09,0.57771
5784.31,0.59036
5778.52,0.60142
5772.73,0.60960
5766.95,0.61620
5761.16,0.61873
5755.38,0.62066
5749.59,0.62198
5743.8,0.62454
5738.02,0.62975
5732.23,0.63674
5726.44,0.64034
5720.66,0.64325
5714.87,0.64908
5709.09,0.65493
5703.3,0.65750
5697.51,0.66340
5691.73,0.66696
5685.94,0.66768
5680.15,0.66994
5674.37,0.67324
5668.58,0.67428
5662.8,0.67821
5657.01,0.67541
5651.22,0.67296
5645.44,0.67584
5639.65,0.68169
5633.87,0.68749
5628.08,0.69248
5622.29,0.69969
5616.51,0.70270
5610.72,0.70836
5604.93,0.70684
5599.15,0.71098
5593.36,0.70829
5587.58,0.70397
5581.79,0.70303
5576,0.69973
5570.22,0.69592
5564.43,0.69200
5558.64,0.69248
5552.86,0.69179
5547.07,0.69116
5541.29,0.69303
5535.5,0.69346
5529.71,0.69574
5523.93,0.69780
5518.14,0.69866
5512.35,0.70228
5506.57,0.70790
5500.78,0.70534
5495,0.70590
5489.21,0.70304
5483.42,0.70159
5477.64,0.69927
5471.85,0.69696
5466.06,0.70043
5460.28,0.70498
5454.49,0.70820
5448.71,0.71337
5442.92,0.72079
5437.13,0.72225
5431.35,0.72579
5425.56,0.72643
5419.77,0.72783
5413.99,0.72796
5408.2,0.72717
5402.42,0.72902
5396.63,0.72794
5390.84,0.73041
5385.06,0.72970
5379.27,0.72823
5373.48,0.72792
5367.7,0.72759
5361.91,0.72773
5356.13,0.72597
5350.34,0.72559
5344.55,0.72466
5338.77,0.72687
5332.98,0.72752
5327.19,0.72874
5321.41,0.73209
5315.62,0.73237
5309.84,0.73314
5304.05,0.73343
5298.26,0.73272
5292.48,0.72979
5286.69,0.72750
5280.9,0.72540
5275.12,0.72247
5269.33,0.71845
5263.55,0.71738
5257.76,0.71615
5251.97,0.71920
5246.19,0.72229
5240.4,0.72262
5234.61,0.72576
5228.83,0.72518
5223.04,0.72424
5217.26,0.72375
5211.47,0.72355
5205.68,0.72372
5199.9,0.72352
5194.11,0.72341
5188.32,0.72241
5182.54,0.72136
5176.75,0.71974
5170.97,0.71970
5165.18,0.71830
5159.39,0.71642
5153.61,0.71373
5147.82,0.71003
5142.03,0.70666
5136.25,0.70162
5130.46,0.69529
5124.68,0.68802
5118.89,0.68208
5113.1,0.68011
5107.32,0.67930
5101.53,0.67725
5095.75,0.67604
5089.96,0.67666
5084.17,0.68659
5078.39,0.69665
5072.6,0.70672
5066.81,0.71588
5061.03,0.72313
5055.24,0.72638
5049.46,0.72750
5043.67,0.72785
5037.88,0.72719
5032.1,0.72543
5026.31,0.72509
5020.52,0.72413
5014.74,0.72431
5008.95,0.72445
5003.17,0.72511
4997.38,0.72534
4991.59,0.72510
4985.81,0.72520
4980.02,0.72540
4974.23,0.72738
4968.45,0.72941
4962.66,0.72830
4956.88,0.72643
4951.09,0.72374
4945.3,0.72110
4939.52,0.71981
4933.73,0.71659
4927.94,0.71784
4922.16,0.71728
4916.37,0.71787
4910.59,0.71506
4904.8,0.71399
4899.01,0.71197
4893.23,0.71132
4887.44,0.70879
4881.65,0.70812
4875.87,0.70591
4870.08,0.70511
4864.3,0.70308
4858.51,0.70228
4852.72,0.70051
4846.94,0.69624
4841.15,0.69113
4835.36,0.68164
4829.58,0.67119
4823.79,0.65715
4818.01,0.64823
4812.22,0.64065
4806.43,0.63469
4800.65,0.62811
4794.86,0.62476
4789.07,0.62552
4783.29,0.63051
4777.5,0.63765
4771.72,0.64428
4765.93,0.64974
4760.14,0.65115
4754.36,0.64402
4748.57,0.63071
4742.78,0.61604
4737,0.59990
4731.21,0.57428
4725.43,0.53882
4719.64,0.50986
4713.85,0.50375
4708.07,0.49729
4702.28,0.47757
4696.49,0.44772
4690.71,0.42381
4684.92,0.42477
4679.14,0.44522
4673.35,0.47683
4667.56,0.50239
4661.78,0.51339
4655.99,0.51662
4650.2,0.51074
4644.42,0.48990
4638.63,0.46687
4632.85,0.46245
4627.06,0.48215
4621.27,0.51629
4615.49,0.54600
4609.7,0.56611
4603.92,0.57369
4598.13,0.56311
4592.34,0.54170
4586.56,0.52924
4580.77,0.51213
4574.98,0.51560
4569.2,0.55117
4563.41,0.58618
4557.63,0.60161
4551.84,0.60513
4546.05,0.60475
4540.27,0.60322
4534.48,0.60038
4528.69,0.59592
4522.91,0.58987
4517.12,0.58055
4511.34,0.56789
4505.55,0.54803
4499.76,0.51982
4493.98,0.48432
4488.19,0.46414
4482.4,0.45966
4476.62,0.45512
4470.83,0.44488
4465.05,0.42588
4459.26,0.40288
4453.47,0.38437
4447.69,0.36557
4441.9,0.34441
4436.11,0.32651
4430.33,0.31471
4424.54,0.30894
4418.76,0.31953
4412.97,0.33410
4407.18,0.34116
4401.4,0.34445
4395.61,0.35627
4389.82,0.36559
4384.04,0.36685
4378.25,0.35969
4372.47,0.34728
4366.68,0.33784
4360.89,0.33658
4355.11,0.33865
4349.32,0.34281
4343.53,0.34976
4337.75,0.35442
4331.96,0.35760
4326.18,0.36311
4320.39,0.36922
4314.6,0.37489
4308.82,0.37617
4303.03,0.36990
4297.24,0.36069
4291.46,0.35412
4285.67,0.35129
4279.89,0.34834
4274.1,0.34046
4268.31,0.33649
4262.53,0.34005
4256.74,0.34647
4250.95,0.35073
4245.17,0.35229
4239.38,0.35496
4233.6,0.35152
4227.81,0.34760
4222.02,0.34603
4216.24,0.34582
4210.45,0.34527
4204.66,0.34692
4198.88,0.35277
4193.09,0.35869
4187.31,0.35925
4181.52,0.34780
4175.73,0.34339
4169.95,0.35780
4164.16,0.37800
4158.37,0.39377
4152.59,0.40346
4146.8,0.41175
4141.02,0.41322
4135.23,0.40850
4129.44,0.40021
4123.66,0.38961
4117.87,0.37589
4112.09,0.35878
4106.3,0.33472
4100.51,0.30479
4094.73,0.26603
4088.94,0.24368
4083.15,0.26000
4077.37,0.28954
4071.58,0.31648
4065.8,0.33576
4060.01,0.34900
4054.22,0.35768
4048.44,0.36499
4042.65,0.37463
4036.86,0.38300
4031.08,0.38515
4025.29,0.38738
4019.51,0.39304
4013.72,0.39814
4007.93,0.40310
4002.15,0.41317
3996.36,0.42427
3990.57,0.43240
3984.79,0.43814
3979,0.44312
3973.22,0.44519
3967.43,0.44643
3961.64,0.44362
3955.86,0.43779
3950.07,0.43061
3944.28,0.42285
3938.5,0.41763
3932.71,0.41623
3926.93,0.41327
3921.14,0.41260
3915.35,0.41458
3909.57,0.42097
3903.78,0.42992
3897.99,0.43744
3892.21,0.44373
3886.42,0.45306
3880.64,0.46295
3874.85,0.47099
3869.06,0.47652
3863.28,0.48034
3857.49,0.48204
3851.7,0.48640
3845.92,0.49196
3840.13,0.49282
3834.35,0.48877
3828.56,0.48736
3822.77,0.48953
3816.99,0.48234
3811.2,0.47054
3805.41,0.46549
3799.63,0.48214
3793.84,0.50247
3788.06,0.51412
3782.27,0.51518
3776.48,0.50759
3770.7,0.49557
3764.91,0.48294
3759.12,0.46982
3753.34,0.47506
3747.55,0.50128
3741.77,0.50974
3735.98,0.49593
3730.19,0.49010
3724.41,0.50732
3718.62,0.51674
3712.83,0.51271
3707.05,0.49977
3701.26,0.48008
3695.48,0.45078
3689.69,0.41220
3683.9,0.41529
3678.12,0.45964
3672.33,0.50130
3666.54,0.51910
3660.76,0.52209
3654.97,0.51846
3649.19,0.50985
3643.4,0.49873
3637.61,0.48799
3631.83,0.47986
3626.04,0.46957
3620.25,0.45782
3614.47,0.44607
3608.68,0.43313
3602.9,0.41825
3597.11,0.40015
3591.32,0.37887
3585.54,0.35504
3579.75,0.33170
3573.97,0.31116
3568.18,0.29503
3562.39,0.28279
3556.61,0.27447
3550.82,0.26957
3545.03,0.26835
3539.25,0.27003
3533.46,0.27511
3527.68,0.28255
3521.89,0.29106
3516.1,0.30078
3510.32,0.30944
3504.53,0.31818
3498.74,0.32411
3492.96,0.32851
3487.17,0.33070
3481.39,0.33002
3475.6,0.32557
3469.81,0.31713
3464.03,0.30234
3458.24,0.28239
3452.45,0.26031
3446.67,0.23274
3440.88,0.20477
3435.1,0.18176
3429.31,0.16795
3423.52,0.16655
3417.74,0.16735
3411.95,0.17022
3406.16,0.19834
3400.38,0.24737
3394.59,0.28618
3388.81,0.30894
3383.02,0.32358
3377.23,0.33327
3371.45,0.33820
3365.66,0.33833
3359.87,0.33469
3354.09,0.32795
3348.3,0.31693
3342.52,0.30365
3336.73,0.28995
3330.94,0.28133
3325.16,0.28669
3319.37,0.30336
3313.58,0.31534
3307.8,0.31692
3302.01,0.31148
3296.23,0.30636
3290.44,0.30377
3284.65,0.31069
3278.87,0.32053
3273.08,0.32588
3267.29,0.32793
3261.51,0.32795
3255.72,0.32617
3249.94,0.32402
3244.15,0.32175
3238.36,0.31697
3232.58,0.31164
3226.79,0.30864
3221,0.30827
3215.22,0.31430
3209.43,0.31952
3203.65,0.31937
3197.86,0.31554
3192.07,0.31095
3186.29,0.30773
3180.5,0.30552
3174.71,0.30308
3168.93,0.29923
3163.14,0.29539
3157.36,0.28945
3151.57,0.28270
3145.78,0.27485
3140,0.26385
3134.21,0.24746
3128.42,0.23059
3122.64,0.23037
3116.85,0.23100
3111.07,0.21638
3105.28,0.19632
3099.49,0.19103
3093.71,0.19782
3087.92,0.18411
3082.14,0.16690
3076.35,0.16355
3070.56,0.15888
3064.78,0.15636
3058.99,0.15476
3053.2,0.15359
3047.42,0.18457
3041.63,0.21449
3035.85,0.21746
3030.06,0.20604
3024.27,0.18580
3018.49,0.15848
3012.7,0.13101
3006.91,0.10713
3001.13,0.08608
2995.34,0.06719
2989.56,0.04953
2983.77,0.03843
2977.98,0.03443
2972.2,0.03302
2966.41,0.03357
2960.62,0.03579
2954.84,0.04261
2949.05,0.05498
2943.27,0.06782
2937.48,0.07511
2931.69,0.07789
2925.91,0.07927
2920.12,0.07776
2914.33,0.07388
2908.55,0.05838
2902.76,0.05100
2896.98,0.06437
2891.19,0.08298
2885.4,0.09580
2879.62,0.10594
2873.83,0.11230
2868.04,0.11612
2862.26,0.11803
2856.47,0.12211
2850.69,0.13115
2844.9,0.15453
2839.11,0.17476
2833.33,0.18820
2827.54,0.20390
2821.75,0.22580
2815.97,0.23953
2810.18,0.24292
2804.4,0.24622
2798.61,0.25585
2792.82,0.26247
2787.04,0.26467
2781.25,0.26525
2775.46,0.26665
2769.68,0.27052
2763.89,0.28297
2758.11,0.29518
2752.32,0.30267
2746.53,0.30323
2740.75,0.30318
2734.96,0.31449
2729.17,0.33074
2723.39,0.34228
2717.6,0.34414
2711.82,0.34411
2706.03,0.35268
2700.24,0.36220
2694.46,0.36588
2688.67,0.36695
2682.88,0.36651
2677.1,0.36632
2671.31,0.36566
2665.53,0.36303
2659.74,0.35988
2653.95,0.35463
2648.17,0.34615
2642.38,0.33604
2636.59,0.32408
2630.81,0.31233
2625.02,0.31371
2619.24,0.32087
2613.45,0.32739
2607.66,0.33018
2601.88,0.32885
2596.09,0.32315
2590.3,0.31035
2584.52,0.29673
2578.73,0.29023
2572.95,0.29175
2567.16,0.29380
2561.37,0.29048
2555.59,0.28528
2549.8,0.28030
2544.02,0.27693
2538.23,0.27591
2532.44,0.27976
2526.66,0.28775
2520.87,0.29702
2515.08,0.30590
2509.3,0.31573
2503.51,0.32481
2497.73,0.32968
2491.94,0.33298
2486.15,0.33549
2480.37,0.34345
2474.58,0.35460
2468.79,0.36085
2463.01,0.36226
2457.22,0.36160
2451.44,0.35884
2445.65,0.35293
2439.86,0.33880
2434.08,0.31620
2428.29,0.29759
2422.5,0.28159
2416.72,0.26423
2410.93,0.25010
2405.15,0.24002
2399.36,0.23013
2393.57,0.22284
2387.79,0.21889
2382,0.21811
2376.21,0.22037
2370.43,0.22845
2364.64,0.24347
2358.86,0.26439
2353.07,0.28573
2347.28,0.30498
2341.5,0.32143
2335.71,0.33334
2329.92,0.33537
2324.14,0.33365
2318.35,0.34844
2312.57,0.35838
2306.78,0.35407
2300.99,0.34152
2295.21,0.32031
2289.42,0.29698
2283.63,0.28422
2277.85,0.28935
2272.06,0.30162
2266.28,0.30459
2260.49,0.30138
2254.7,0.29305
2248.92,0.28248
2243.13,0.27641
2237.34,0.27520
2231.56,0.27406
2225.77,0.27387
2219.99,0.27465
2214.2,0.27228
2208.41,0.27064
2202.63,0.28087
2196.84,0.28864
2191.05,0.29303
2185.27,0.30077
2179.48,0.30797
2173.7,0.30899
2167.91,0.30303
2162.12,0.29475
2156.34,0.28549
2150.55,0.27691
2144.76,0.27186
2138.98,0.26714
2133.19,0.26322
2127.41,0.25923
2121.62,0.25409
2115.83,0.24910
2110.05,0.24769
2104.26,0.24784
2098.47,0.24754
2092.69,0.24932
2086.9,0.25254
2081.12,0.25706
2075.33,0.26150
2069.54,0.26254
2063.76,0.26041
2057.97,0.26153
2052.19,0.26846
2046.4,0.27539
2040.61,0.27241
2034.83,0.26250
2029.04,0.25725
2023.25,0.26067
2017.47,0.25964
2011.68,0.26037
2005.9,0.26236
2000.11,0.25586
1994.32,0.24495
1988.54,0.23693
1982.75,0.23287
1976.96,0.22202
1971.18,0.20445
1965.39,0.17955
1959.61,0.15289
1953.82,0.13338
1948.03,0.14116
1942.25,0.16988
1936.46,0.19724
1930.67,0.22003
1924.89,0.23946
1919.1,0.25320
1913.32,0.25987
1907.53,0.25960
1901.74,0.25323
1895.96,0.24540
1890.17,0.23848
1884.38,0.23016
1878.6,0.22971
1872.81,0.22856
1867.03,0.21779
1861.24,0.20723
1855.45,0.19578
1849.67,0.17792
1843.88,0.15550
1838.09,0.13618
1832.31,0.12035
1826.52,0.10866
1820.74,0.10577
1814.95,0.10530
1809.16,0.10181
1803.38,0.09783
1797.59,0.09387
1791.8,0.08981
1786.02,0.08308
1780.23,0.07541
1774.45,0.06825
1768.66,0.05935
1762.87,0.04930
1757.09,0.03828
1751.3,0.02808
1745.51,0.01956
1739.73,0.01587
1733.94,0.01668
1728.16,0.02134
1722.37,0.02799
1716.58,0.03284
1710.8,0.03132
1705.01,0.02854
1699.22,0.03111
1693.44,0.03697
1687.65,0.04263
1681.87,0.04513
1676.08,0.04644
1670.29,0.05561
1664.51,0.07454
1658.72,0.08975
1652.93,0.09975
1647.15,0.10603
1641.36,0.11166
1635.58,0.11756
1629.79,0.12326
1624,0.12489
1618.22,0.11199
1612.43,0.09990
1606.64,0.11786
1600.86,0.13637
1595.07,0.13962
1589.29,0.12611
1583.5,0.09118
1577.71,0.06490
1571.93,0.09090
1566.14,0.12001
1560.35,0.13014
1554.57,0.13232
1548.78,0.13519
1543,0.13271
1537.21,0.11922
1531.42,0.09875
1525.64,0.09327
1519.85,0.09432
1514.07,0.07834
1508.28,0.04244
1502.49,0.03711
1496.71,0.08393
1490.92,0.10145
1485.13,0.07903
1479.35,0.04982
1473.56,0.03118
1467.78,0.02588
1461.99,0.02732
1456.2,0.03260
1450.42,0.03997
1444.63,0.04906
1438.84,0.05246
1433.06,0.05063
1427.27,0.03974
1421.49,0.02827
1415.7,0.02067
1409.91,0.01824
1404.13,0.02204
1398.34,0.02517
1392.55,0.02328
1386.77,0.02321
1380.98,0.02475
1375.2,0.02740
1369.41,0.02959
1363.62,0.02741
1357.84,0.02478
1352.05,0.02872
1346.26,0.03160
1340.48,0.02735
1334.69,0.02290
1328.91,0.02008
1323.12,0.01822
1317.33,0.01662
1311.55,0.01517
1305.76,0.01476
1299.97,0.01526
1294.19,0.01744
1288.4,0.02093
1282.62,0.02816
1276.83,0.03523
1271.04,0.03957
1265.26,0.03963
1259.47,0.03652
1253.68,0.03572
1247.9,0.03755
1242.11,0.03667
1236.33,0.03400
1230.54,0.03473
1224.75,0.03644
1218.97,0.04215
1213.18,0.05309
1207.39,0.05916
1201.61,0.06529
1195.82,0.07548
1190.04,0.08013
1184.25,0.07048
1178.46,0.05345
1172.68,0.04538
1166.89,0.04659
1161.1,0.04300
1155.32,0.03412
1149.53,0.02507
1143.75,0.01978
1137.96,0.01815
1132.17,0.02142
1126.39,0.02727
1120.6,0.02733
1114.81,0.02506
1109.03,0.02594
1103.24,0.02990
1097.46,0.03014
1091.67,0.02910
1085.88,0.02909
1080.1,0.03453
1074.31,0.04885
1068.52,0.06164
1062.74,0.06586
1056.95,0.05868
1051.17,0.04071
1045.38,0.02977
1039.59,0.03086
1033.81,0.03284
1028.02,0.02975
1022.24,0.02668
1016.45,0.03235
1010.66,0.06560
1004.88,0.10550
999.09,0.12069
993.304,0.11633
987.518,0.09947
981.731,0.08226
975.945,0.07109
970.159,0.07535
964.373,0.08805
958.586,0.08685
952.8,0.06735
947.014,0.06129
941.228,0.06177
935.441,0.06039
929.655,0.07025
923.869,0.08700
918.083,0.09554
912.297,0.09325
906.51,0.08657
900.724,0.09332
894.938,0.10242
889.152,0.10324
883.365,0.07712
877.579,0.04294
871.793,0.03509
866.007,0.07613
860.22,0.08592
854.434,0.07162
848.648,0.06997
842.862,0.07687
837.075,0.09461
831.289,0.10651
825.503,0.10771
819.717,0.10750
813.931,0.10955
808.144,0.11199
802.358,0.11611
796.572,0.08536
790.786,0.10264
784.999,0.13300
779.213,0.13054
773.427,0.11970
767.641,0.12611
761.854,0.12696
756.068,0.11980
750.282,0.10252
744.496,0.06244
738.709,0.02342
732.923,0.02074
727.137,0.02995
721.351,0.04306
715.565,0.08565
709.778,0.10796
703.992,0.11621
698.206,0.15974
692.42,0.18683
686.633,0.18689
680.847,0.17356
675.061,0.19038
669.275,0.20238
663.488,0.20827
657.702,0.21117
651.916,0.21675
646.13,0.21966
640.343,0.22122
634.557,0.19019
628.771,0.20589
622.985,0.23234
617.198,0.23886
611.412,0.24190
605.626,0.24300
599.84,0.24180