File: 01_Data/Triexta_Carpet_High_Pile/FTIR/IS/Triexta_Carpet_High_Pile_IS_S_221121_R7.dpt
7497.03,0.85484
7491.25,0.85722
7485.46,0.83567
7479.67,0.83657
7473.89,0.85113
7468.1,0.83680
7462.32,0.84172
7456.53,0.83470
7450.74,0.83550
7444.96,0.84255
7439.17,0.84247
7433.38,0.82851
7427.6,0.83509
7421.81,0.82885
7416.03,0.84131
7410.24,0.82735
7404.45,0.81831
7398.67,0.82277
7392.88,0.81162
7387.09,0.81518
7381.31,0.82402
7375.52,0.80779
7369.74,0.80288
7363.95,0.79759
7358.16,0.79966
7352.38,0.80880
7346.59,0.79515
7340.8,0.79186
7335.02,0.79121
7329.23,0.78314
7323.45,0.78242
7317.66,0.79289
7311.87,0.78919
7306.09,0.79516
7300.3,0.79006
7294.51,0.78902
7288.73,0.78716
7282.94,0.79007
7277.16,0.79638
7271.37,0.80330
7265.58,0.79683
7259.8,0.81003
7254.01,0.79425
7248.22,0.79898
7242.44,0.79022
7236.65,0.78145
7230.87,0.78226
7225.08,0.77161
7219.29,0.77908
7213.51,0.78030
7207.72,0.78819
7201.93,0.77878
7196.15,0.76812
7190.36,0.77953
7184.58,0.78867
7178.79,0.78555
7173,0.78838
7167.22,0.78045
7161.43,0.78637
7155.65,0.78297
7149.86,0.77527
7144.07,0.78394
7138.29,0.78173
7132.5,0.78574
7126.71,0.78163
7120.93,0.77808
7115.14,0.78541
7109.36,0.77910
7103.57,0.79203
7097.78,0.78645
7092,0.78212
7086.21,0.78473
7080.42,0.78158
7074.64,0.77853
7068.85,0.78622
7063.07,0.78344
7057.28,0.77888
7051.49,0.78597
7045.71,0.78000
7039.92,0.77678
7034.13,0.79035
7028.35,0.78027
7022.56,0.78027
7016.78,0.77853
7010.99,0.77685
7005.2,0.77970
6999.42,0.78581
6993.63,0.78790
6987.84,0.78670
6982.06,0.78774
6976.27,0.78926
6970.49,0.80021
6964.7,0.79796
6958.91,0.80776
6953.13,0.79769
6947.34,0.79847
6941.55,0.79777
6935.77,0.79494
6929.98,0.79692
6924.2,0.79687
6918.41,0.79688
6912.62,0.79179
6906.84,0.79742
6901.05,0.80309
6895.26,0.80826
6889.48,0.80236
6883.69,0.80461
6877.91,0.81146
6872.12,0.80713
6866.33,0.80882
6860.55,0.80868
6854.76,0.81039
6848.97,0.81402
6843.19,0.81085
6837.4,0.81295
6831.62,0.80872
6825.83,0.81128
6820.04,0.82322
6814.26,0.81622
6808.47,0.82108
6802.68,0.82245
6796.9,0.82216
6791.11,0.82229
6785.33,0.82612
6779.54,0.82156
6773.75,0.81970
6767.97,0.82160
6762.18,0.82074
6756.39,0.82630
6750.61,0.82090
6744.82,0.82814
6739.04,0.82926
6733.25,0.82421
6727.46,0.82607
6721.68,0.83518
6715.89,0.82653
6710.1,0.83410
6704.32,0.83446
6698.53,0.83182
6692.75,0.83208
6686.96,0.83142
6681.17,0.83244
6675.39,0.83362
6669.6,0.83478
6663.82,0.83346
6658.03,0.83814
6652.24,0.83762
6646.46,0.83685
6640.67,0.83666
6634.88,0.84431
6629.1,0.84505
6623.31,0.84196
6617.53,0.84333
6611.74,0.84102
6605.95,0.83800
6600.17,0.84573
6594.38,0.83934
6588.59,0.83773
6582.81,0.84232
6577.02,0.84139
6571.24,0.84340
6565.45,0.83899
6559.66,0.84181
6553.88,0.84407
6548.09,0.84230
6542.3,0.84238
6536.52,0.84235
6530.73,0.84179
6524.95,0.84090
6519.16,0.84098
6513.37,0.84351
6507.59,0.83696
6501.8,0.83865
6496.01,0.84098
6490.23,0.84301
6484.44,0.83743
6478.66,0.84069
6472.87,0.84184
6467.08,0.84526
6461.3,0.83985
6455.51,0.84314
6449.72,0.84282
6443.94,0.84036
6438.15,0.84203
6432.37,0.84214
6426.58,0.83839
6420.79,0.84281
6415.01,0.84514
6409.22,0.84131
6403.43,0.84501
6397.65,0.83945
6391.86,0.84274
6386.08,0.84723
6380.29,0.83997
6374.5,0.83866
6368.72,0.84051
6362.93,0.84141
6357.14,0.83977
6351.36,0.84007
6345.57,0.84087
6339.79,0.84089
6334,0.83458
6328.21,0.83474
6322.43,0.83403
6316.64,0.83399
6310.85,0.82926
6305.07,0.83024
6299.28,0.83400
6293.5,0.83443
6287.71,0.83505
6281.92,0.83564
6276.14,0.82888
6270.35,0.82806
6264.56,0.82852
6258.78,0.82757
6252.99,0.82801
6247.21,0.82642
6241.42,0.82257
6235.63,0.81874
6229.85,0.81813
6224.06,0.81425
6218.27,0.81312
6212.49,0.81146
6206.7,0.79551
6200.92,0.78450
6195.13,0.77308
6189.34,0.77544
6183.56,0.77691
6177.77,0.77959
6171.98,0.77980
6166.2,0.77685
6160.41,0.77229
6154.63,0.76816
6148.84,0.76247
6143.05,0.75618
6137.27,0.75599
6131.48,0.75205
6125.7,0.74979
6119.91,0.73674
6114.12,0.72363
6108.34,0.70475
6102.55,0.68028
6096.76,0.65935
6090.98,0.63630
6085.19,0.62162
6079.41,0.60632
6073.62,0.58365
6067.83,0.56145
6062.05,0.53333
6056.26,0.51259
6050.47,0.49956
6044.69,0.49075
6038.9,0.48341
6033.12,0.46917
6027.33,0.46931
6021.54,0.46681
6015.76,0.46949
6009.97,0.48361
6004.18,0.50068
5998.4,0.52367
5992.61,0.54070
5986.83,0.55448
5981.04,0.56570
5975.25,0.57025
5969.47,0.57459
5963.68,0.57822
5957.89,0.57720
5952.11,0.56645
5946.32,0.55819
5940.54,0.55788
5934.75,0.56519
5928.96,0.57715
5923.18,0.59099
5917.39,0.60183
5911.6,0.60830
5905.82,0.61041
5900.03,0.61257
5894.25,0.61166
5888.46,0.61607
5882.67,0.61745
5876.89,0.61896
5871.1,0.62564
5865.31,0.63151
5859.53,0.63441
5853.74,0.63541
5847.96,0.63313
5842.17,0.62751
5836.38,0.62332
5830.6,0.61515
5824.81,0.60427
5819.02,0.59286
5813.24,0.58341
5807.45,0.57886
5801.67,0.57501
5795.88,0.57488
5790.09,0.57805
5784.31,0.58838
5778.52,0.60252
5772.73,0.60958
5766.95,0.61531
5761.16,0.62104
5755.38,0.61905
5749.59,0.62262
5743.8,0.62458
5738.02,0.62845
5732.23,0.63483
5726.44,0.63877
5720.66,0.64398
5714.87,0.64743
5709.09,0.65423
5703.3,0.65784
5697.51,0.66196
5691.73,0.66687
5685.94,0.66917
5680.15,0.67217
5674.37,0.67341
5668.58,0.67539
5662.8,0.67592
5657.01,0.67459
5651.22,0.67589
5645.44,0.67759
5639.65,0.68238
5633.87,0.68938
5628.08,0.69467
5622.29,0.70126
5616.51,0.70307
5610.72,0.70672
5604.93,0.71017
5599.15,0.71081
5593.36,0.70907
5587.58,0.70527
5581.79,0.70075
5576,0.70099
5570.22,0.69793
5564.43,0.69319
5558.64,0.68840
5552.86,0.69164
5547.07,0.69201
5541.29,0.69318
5535.5,0.69395
5529.71,0.69313
5523.93,0.69767
5518.14,0.70070
5512.35,0.70204
5506.57,0.70818
5500.78,0.70872
5495,0.70700
5489.21,0.70546
5483.42,0.69953
5477.64,0.70022
5471.85,0.69768
5466.06,0.69963
5460.28,0.70369
5454.49,0.71019
5448.71,0.71565
5442.92,0.71941
5437.13,0.72279
5431.35,0.72562
5425.56,0.72614
5419.77,0.72807
5413.99,0.72905
5408.2,0.72966
5402.42,0.72737
5396.63,0.72769
5390.84,0.72802
5385.06,0.72866
5379.27,0.72878
5373.48,0.72892
5367.7,0.72803
5361.91,0.72817
5356.13,0.72694
5350.34,0.72490
5344.55,0.72512
5338.77,0.72852
5332.98,0.72957
5327.19,0.73127
5321.41,0.73284
5315.62,0.73409
5309.84,0.73591
5304.05,0.73478
5298.26,0.73206
5292.48,0.73032
5286.69,0.72801
5280.9,0.72566
5275.12,0.72493
5269.33,0.71846
5263.55,0.71708
5257.76,0.71678
5251.97,0.71937
5246.19,0.72199
5240.4,0.72316
5234.61,0.72352
5228.83,0.72415
5223.04,0.72462
5217.26,0.72446
5211.47,0.72483
5205.68,0.72256
5199.9,0.72294
5194.11,0.72429
5188.32,0.72312
5182.54,0.72118
5176.75,0.71826
5170.97,0.71889
5165.18,0.71683
5159.39,0.71614
5153.61,0.71363
5147.82,0.71225
5142.03,0.70634
5136.25,0.70028
5130.46,0.69472
5124.68,0.68832
5118.89,0.68179
5113.1,0.68021
5107.32,0.67884
5101.53,0.67924
5095.75,0.67675
5089.96,0.67675
5084.17,0.68545
5078.39,0.69760
5072.6,0.70886
5066.81,0.71622
5061.03,0.72235
5055.24,0.72640
5049.46,0.72692
5043.67,0.72787
5037.88,0.72844
5032.1,0.72589
5026.31,0.72559
5020.52,0.72454
5014.74,0.72410
5008.95,0.72443
5003.17,0.72531
4997.38,0.72527
4991.59,0.72432
4985.81,0.72554
4980.02,0.72811
4974.23,0.72910
4968.45,0.72962
4962.66,0.72879
4956.88,0.72858
4951.09,0.72338
4945.3,0.72043
4939.52,0.72035
4933.73,0.71809
4927.94,0.71790
4922.16,0.71859
4916.37,0.71822
4910.59,0.71630
4904.8,0.71386
4899.01,0.71287
4893.23,0.71156
4887.44,0.71076
4881.65,0.70812
4875.87,0.70623
4870.08,0.70697
4864.3,0.70125
4858.51,0.70103
4852.72,0.70001
4846.94,0.69804
4841.15,0.69218
4835.36,0.68208
4829.58,0.67109
4823.79,0.65862
4818.01,0.64725
4812.22,0.63963
4806.43,0.63561
4800.65,0.62917
4794.86,0.62592
4789.07,0.62752
4783.29,0.63228
4777.5,0.63958
4771.72,0.64460
4765.93,0.64991
4760.14,0.65135
4754.36,0.64361
4748.57,0.63132
4742.78,0.61608
4737,0.60084
4731.21,0.57419
4725.43,0.53921
4719.64,0.51024
4713.85,0.50291
4708.07,0.49860
4702.28,0.47884
4696.49,0.44750
4690.71,0.42446
4684.92,0.42534
4679.14,0.44600
4673.35,0.47767
4667.56,0.50183
4661.78,0.51357
4655.99,0.51518
4650.2,0.51118
4644.42,0.49064
4638.63,0.46793
4632.85,0.46282
4627.06,0.48337
4621.27,0.51573
4615.49,0.54632
4609.7,0.56674
4603.92,0.57426
4598.13,0.56458
4592.34,0.54312
4586.56,0.52939
4580.77,0.51225
4574.98,0.51513
4569.2,0.55171
4563.41,0.58584
4557.63,0.60193
4551.84,0.60516
4546.05,0.60456
4540.27,0.60450
4534.48,0.60125
4528.69,0.59728
4522.91,0.58915
4517.12,0.58098
4511.34,0.56861
4505.55,0.54839
4499.76,0.52055
4493.98,0.48543
4488.19,0.46506
4482.4,0.46112
4476.62,0.45561
4470.83,0.44579
4465.05,0.42538
4459.26,0.40226
4453.47,0.38398
4447.69,0.36531
4441.9,0.34498
4436.11,0.32622
4430.33,0.31500
4424.54,0.30996
4418.76,0.31947
4412.97,0.33475
4407.18,0.34104
4401.4,0.34483
4395.61,0.35675
4389.82,0.36658
4384.04,0.36779
4378.25,0.36058
4372.47,0.34719
4366.68,0.33809
4360.89,0.33674
4355.11,0.33854
4349.32,0.34256
4343.53,0.35096
4337.75,0.35494
4331.96,0.35882
4326.18,0.36416
4320.39,0.37026
4314.6,0.37571
4308.82,0.37696
4303.03,0.37046
4297.24,0.36092
4291.46,0.35300
4285.67,0.35150
4279.89,0.34808
4274.1,0.34109
4268.31,0.33707
4262.53,0.34055
4256.74,0.34753
4250.95,0.35087
4245.17,0.35404
4239.38,0.35454
4233.6,0.35224
4227.81,0.34776
4222.02,0.34575
4216.24,0.34703
4210.45,0.34509
4204.66,0.34727
4198.88,0.35318
4193.09,0.35919
4187.31,0.35812
4181.52,0.34859
4175.73,0.34297
4169.95,0.35811
4164.16,0.37864
4158.37,0.39426
4152.59,0.40462
4146.8,0.41182
4141.02,0.41415
4135.23,0.40883
4129.44,0.40048
4123.66,0.38989
4117.87,0.37621
4112.09,0.35826
4106.3,0.33415
4100.51,0.30483
4094.73,0.26617
4088.94,0.24335
4083.15,0.25989
4077.37,0.28949
4071.58,0.31639
4065.8,0.33615
4060.01,0.35012
4054.22,0.35832
4048.44,0.36491
4042.65,0.37517
4036.86,0.38320
4031.08,0.38624
4025.29,0.38722
4019.51,0.39345
4013.72,0.39770
4007.93,0.40276
4002.15,0.41292
3996.36,0.42454
3990.57,0.43299
3984.79,0.43882
3979,0.44342
3973.22,0.44592
3967.43,0.44719
3961.64,0.44284
3955.86,0.43731
3950.07,0.43100
3944.28,0.42333
3938.5,0.41870
3932.71,0.41649
3926.93,0.41340
3921.14,0.41232
3915.35,0.41507
3909.57,0.42120
3903.78,0.43079
3897.99,0.43858
3892.21,0.44407
3886.42,0.45374
3880.64,0.46342
3874.85,0.47095
3869.06,0.47598
3863.28,0.47991
3857.49,0.48297
3851.7,0.48625
3845.92,0.49209
3840.13,0.49348
3834.35,0.48957
3828.56,0.48839
3822.77,0.49090
3816.99,0.48332
3811.2,0.47092
3805.41,0.46651
3799.63,0.48308
3793.84,0.50339
3788.06,0.51479
3782.27,0.51567
3776.48,0.50821
3770.7,0.49648
3764.91,0.48410
3759.12,0.47044
3753.34,0.47533
3747.55,0.50197
3741.77,0.50986
3735.98,0.49647
3730.19,0.49015
3724.41,0.50738
3718.62,0.51748
3712.83,0.51345
3707.05,0.50031
3701.26,0.48012
3695.48,0.45115
3689.69,0.41249
3683.9,0.41512
3678.12,0.46008
3672.33,0.50238
3666.54,0.52039
3660.76,0.52398
3654.97,0.52013
3649.19,0.51230
3643.4,0.50094
3637.61,0.49044
3631.83,0.48195
3626.04,0.47162
3620.25,0.45964
3614.47,0.44739
3608.68,0.43418
3602.9,0.41955
3597.11,0.40120
3591.32,0.37935
3585.54,0.35548
3579.75,0.33241
3573.97,0.31243
3568.18,0.29622
3562.39,0.28328
3556.61,0.27451
3550.82,0.27009
3545.03,0.26931
3539.25,0.27126
3533.46,0.27578
3527.68,0.28290
3521.89,0.29227
3516.1,0.30131
3510.32,0.30987
3504.53,0.31821
3498.74,0.32492
3492.96,0.32957
3487.17,0.33197
3481.39,0.33096
3475.6,0.32672
3469.81,0.31840
3464.03,0.30319
3458.24,0.28344
3452.45,0.26028
3446.67,0.23286
3440.88,0.20563
3435.1,0.18183
3429.31,0.16805
3423.52,0.16619
3417.74,0.16675
3411.95,0.17043
3406.16,0.19788
3400.38,0.24714
3394.59,0.28644
3388.81,0.31010
3383.02,0.32458
3377.23,0.33460
3371.45,0.33881
3365.66,0.33955
3359.87,0.33603
3354.09,0.32902
3348.3,0.31757
3342.52,0.30333
3336.73,0.28989
3330.94,0.28165
3325.16,0.28705
3319.37,0.30470
3313.58,0.31668
3307.8,0.31809
3302.01,0.31230
3296.23,0.30626
3290.44,0.30450
3284.65,0.31086
3278.87,0.32057
3273.08,0.32653
3267.29,0.32834
3261.51,0.32841
3255.72,0.32755
3249.94,0.32574
3244.15,0.32266
3238.36,0.31780
3232.58,0.31299
3226.79,0.30860
3221,0.30893
3215.22,0.31412
3209.43,0.31985
3203.65,0.32038
3197.86,0.31663
3192.07,0.31158
3186.29,0.30903
3180.5,0.30587
3174.71,0.30360
3168.93,0.30025
3163.14,0.29564
3157.36,0.29006
3151.57,0.28385
3145.78,0.27497
3140,0.26354
3134.21,0.24782
3128.42,0.23069
3122.64,0.23094
3116.85,0.23160
3111.07,0.21646
3105.28,0.19684
3099.49,0.19139
3093.71,0.19800
3087.92,0.18429
3082.14,0.16733
3076.35,0.16407
3070.56,0.15973
3064.78,0.15691
3058.99,0.15435
3053.2,0.15391
3047.42,0.18565
3041.63,0.21461
3035.85,0.21758
3030.06,0.20668
3024.27,0.18646
3018.49,0.15828
3012.7,0.13116
3006.91,0.10743
3001.13,0.08577
2995.34,0.06703
2989.56,0.04944
2983.77,0.03807
2977.98,0.03482
2972.2,0.03341
2966.41,0.03458
2960.62,0.03583
2954.84,0.04330
2949.05,0.05528
2943.27,0.06741
2937.48,0.07470
2931.69,0.07764
2925.91,0.07878
2920.12,0.07743
2914.33,0.07325
2908.55,0.05880
2902.76,0.05087
2896.98,0.06474
2891.19,0.08286
2885.4,0.09570
2879.62,0.10579
2873.83,0.11222
2868.04,0.11559
2862.26,0.11825
2856.47,0.12127
2850.69,0.13173
2844.9,0.15436
2839.11,0.17444
2833.33,0.18826
2827.54,0.20419
2821.75,0.22528
2815.97,0.23912
2810.18,0.24298
2804.4,0.24641
2798.61,0.25653
2792.82,0.26280
2787.04,0.26467
2781.25,0.26531
2775.46,0.26692
2769.68,0.27063
2763.89,0.28281
2758.11,0.29567
2752.32,0.30284
2746.53,0.30362
2740.75,0.30395
2734.96,0.31514
2729.17,0.33109
2723.39,0.34208
2717.6,0.34475
2711.82,0.34462
2706.03,0.35338
2700.24,0.36278
2694.46,0.36665
2688.67,0.36730
2682.88,0.36639
2677.1,0.36742
2671.31,0.36580
2665.53,0.36297
2659.74,0.36012
2653.95,0.35467
2648.17,0.34619
2642.38,0.33575
2636.59,0.32393
2630.81,0.31229
2625.02,0.31433
2619.24,0.32134
2613.45,0.32769
2607.66,0.33064
2601.88,0.32914
2596.09,0.32361
2590.3,0.31048
2584.52,0.29703
2578.73,0.29017
2572.95,0.29185
2567.16,0.29408
2561.37,0.29114
2555.59,0.28523
2549.8,0.28054
2544.02,0.27750
2538.23,0.27654
2532.44,0.28006
2526.66,0.28788
2520.87,0.29722
2515.08,0.30600
2509.3,0.31548
2503.51,0.32528
2497.73,0.33071
2491.94,0.33314
2486.15,0.33610
2480.37,0.34404
2474.58,0.35488
2468.79,0.36133
2463.01,0.36288
2457.22,0.36217
2451.44,0.35870
2445.65,0.35324
2439.86,0.33916
2434.08,0.31635
2428.29,0.29800
2422.5,0.28164
2416.72,0.26426
2410.93,0.25020
2405.15,0.24031
2399.36,0.22998
2393.57,0.22299
2387.79,0.21938
2382,0.21825
2376.21,0.22057
2370.43,0.22880
2364.64,0.24357
2358.86,0.26439
2353.07,0.28626
2347.28,0.30515
2341.5,0.32168
2335.71,0.33356
2329.92,0.33565
2324.14,0.33377
2318.35,0.34913
2312.57,0.35861
2306.78,0.35423
2300.99,0.34201
2295.21,0.32108
2289.42,0.29718
2283.63,0.28468
2277.85,0.28966
2272.06,0.30146
2266.28,0.30493
2260.49,0.30184
2254.7,0.29343
2248.92,0.28285
2243.13,0.27701
2237.34,0.27557
2231.56,0.27366
2225.77,0.27367
2219.99,0.27491
2214.2,0.27212
2208.41,0.27092
2202.63,0.28125
2196.84,0.28899
2191.05,0.29315
2185.27,0.30107
2179.48,0.30855
2173.7,0.30890
2167.91,0.30356
2162.12,0.29531
2156.34,0.28527
2150.55,0.27708
2144.76,0.27207
2138.98,0.26706
2133.19,0.26349
2127.41,0.25962
2121.62,0.25445
2115.83,0.24971
2110.05,0.24794
2104.26,0.24817
2098.47,0.24777
2092.69,0.24999
2086.9,0.25289
2081.12,0.25713
2075.33,0.26161
2069.54,0.26247
2063.76,0.26059
2057.97,0.26166
2052.19,0.26893
2046.4,0.27554
2040.61,0.27222
2034.83,0.26291
2029.04,0.25743
2023.25,0.26045
2017.47,0.25942
2011.68,0.26025
2005.9,0.26251
2000.11,0.25613
1994.32,0.24524
1988.54,0.23680
1982.75,0.23284
1976.96,0.22250
1971.18,0.20481
1965.39,0.18002
1959.61,0.15303
1953.82,0.13316
1948.03,0.14130
1942.25,0.16977
1936.46,0.19721
1930.67,0.22021
1924.89,0.23964
1919.1,0.25307
1913.32,0.25999
1907.53,0.25963
1901.74,0.25330
1895.96,0.24560
1890.17,0.23866
1884.38,0.23024
1878.6,0.23012
1872.81,0.22844
1867.03,0.21804
1861.24,0.20741
1855.45,0.19591
1849.67,0.17806
1843.88,0.15572
1838.09,0.13633
1832.31,0.12021
1826.52,0.10806
1820.74,0.10552
1814.95,0.10510
1809.16,0.10215
1803.38,0.09771
1797.59,0.09365
1791.8,0.08920
1786.02,0.08297
1780.23,0.07532
1774.45,0.06797
1768.66,0.05910
1762.87,0.04940
1757.09,0.03834
1751.3,0.02762
1745.51,0.01943
1739.73,0.01624
1733.94,0.01710
1728.16,0.02144
1722.37,0.02796
1716.58,0.03336
1710.8,0.03158
1705.01,0.02858
1699.22,0.03102
1693.44,0.03700
1687.65,0.04273
1681.87,0.04539
1676.08,0.04626
1670.29,0.05505
1664.51,0.07401
1658.72,0.08988
1652.93,0.09927
1647.15,0.10621
1641.36,0.11164
1635.58,0.11766
1629.79,0.12319
1624,0.12482
1618.22,0.11195
1612.43,0.09980
1606.64,0.11727
1600.86,0.13651
1595.07,0.13967
1589.29,0.12610
1583.5,0.09144
1577.71,0.06583
1571.93,0.09090
1566.14,0.12052
1560.35,0.13044
1554.57,0.13199
1548.78,0.13501
1543,0.13243
1537.21,0.11908
1531.42,0.09878
1525.64,0.09338
1519.85,0.09429
1514.07,0.07831
1508.28,0.04284
1502.49,0.03684
1496.71,0.08365
1490.92,0.10146
1485.13,0.07897
1479.35,0.05038
1473.56,0.03097
1467.78,0.02563
1461.99,0.02736
1456.2,0.03260
1450.42,0.03952
1444.63,0.04894
1438.84,0.05225
1433.06,0.05070
1427.27,0.03971
1421.49,0.02867
1415.7,0.02067
1409.91,0.01822
1404.13,0.02171
1398.34,0.02551
1392.55,0.02376
1386.77,0.02326
1380.98,0.02449
1375.2,0.02735
1369.41,0.02987
1363.62,0.02717
1357.84,0.02465
1352.05,0.02840
1346.26,0.03137
1340.48,0.02792
1334.69,0.02293
1328.91,0.02018
1323.12,0.01861
1317.33,0.01621
1311.55,0.01502
1305.76,0.01446
1299.97,0.01547
1294.19,0.01695
1288.4,0.02183
1282.62,0.02850
1276.83,0.03610
1271.04,0.03952
1265.26,0.03930
1259.47,0.03675
1253.68,0.03586
1247.9,0.03734
1242.11,0.03611
1236.33,0.03389
1230.54,0.03449
1224.75,0.03635
1218.97,0.04157
1213.18,0.05360
1207.39,0.05924
1201.61,0.06547
1195.82,0.07558
1190.04,0.07919
1184.25,0.07081
1178.46,0.05352
1172.68,0.04469
1166.89,0.04701
1161.1,0.04312
1155.32,0.03364
1149.53,0.02446
1143.75,0.01967
1137.96,0.01744
1132.17,0.02120
1126.39,0.02662
1120.6,0.02709
1114.81,0.02601
1109.03,0.02614
1103.24,0.03021
1097.46,0.02993
1091.67,0.02906
1085.88,0.02937
1080.1,0.03488
1074.31,0.04860
1068.52,0.06100
1062.74,0.06583
1056.95,0.05834
1051.17,0.04084
1045.38,0.03009
1039.59,0.03110
1033.81,0.03240
1028.02,0.02963
1022.24,0.02651
1016.45,0.03250
1010.66,0.06614
1004.88,0.10504
999.09,0.12036
993.304,0.11656
987.518,0.09910
981.731,0.08189
975.945,0.07132
970.159,0.07515
964.373,0.08855
958.586,0.08684
952.8,0.06684
947.014,0.06108
941.228,0.06250
935.441,0.06051
929.655,0.07001
923.869,0.08773
918.083,0.09610
912.297,0.09352
906.51,0.08697
900.724,0.09343
894.938,0.10166
889.152,0.10266
883.365,0.07745
877.579,0.04312
871.793,0.03529
866.007,0.07645
860.22,0.08617
854.434,0.07141
848.648,0.06953
842.862,0.07694
837.075,0.09472
831.289,0.10665
825.503,0.10774
819.717,0.10704
813.931,0.10905
808.144,0.11200
802.358,0.11607
796.572,0.08590
790.786,0.10258
784.999,0.13297
779.213,0.13061
773.427,0.11970
767.641,0.12515
761.854,0.12721
756.068,0.12059
750.282,0.10260
744.496,0.06341
738.709,0.02446
732.923,0.02117
727.137,0.03135
721.351,0.04255
715.565,0.08637
709.778,0.10764
703.992,0.11662
698.206,0.15942
692.42,0.18702
686.633,0.18716
680.847,0.17476
675.061,0.18975
669.275,0.20275
663.488,0.21014
657.702,0.21280
651.916,0.21631
646.13,0.21874
640.343,0.22087
634.557,0.19049
628.771,0.20526
622.985,0.23065
617.198,0.23747
611.412,0.23962
605.626,0.24292
599.84,0.24077